{"_links": {"parentPackage": {"href": "/mdr/ct/packages/sdtmct-2023-06-30", "title": "SDTM Controlled Terminology Package 54 Effective 2023-06-30", "type": "Terminology"}, "priorVersion": {"href": "/mdr/ct/packages/sdtmct-2023-03-31/codelists/C190929", "title": "CDISC Clinical Classification Modified Van Assche Index Test Name Terminology", "type": "Code List"}, "rootItem": {"href": "/mdr/root/ct/sdtmct/codelists/C190929", "title": "Version-agnostic anchor resource for codelist C190929", "type": "Root Value Domain"}, "self": {"href": "/mdr/ct/packages/sdtmct-2023-06-30/codelists/C190929", "title": "CDISC Clinical Classification Modified Van Assche Index Test Name Terminology", "type": "Code List"}}, "conceptId": "C190929", "definition": "Modified Van Assche Index test name.", "extensible": "false", "name": "Modified Van Assche Index Clinical Classification Test Name", "preferredTerm": "CDISC Clinical Classification Modified Van Assche Index Test Name Terminology", "submissionValue": "MVAI1TN", "synonyms": ["Modified Van Assche Index Clinical Classification Test Name"], "terms": [{"conceptId": "C191064", "definition": "Modified Van Assche Index - Dominant feature.", "preferredTerm": "MVAI - Dominant Feature", "submissionValue": "MVAI1-Dominant Feature", "synonyms": ["MVAI1-Dominant Feature"]}, {"conceptId": "C191060", "definition": "Modified Van Assche Index - Extension.", "preferredTerm": "MVAI - Extension", "submissionValue": "MVAI1-Extension", "synonyms": ["MVAI1-Extension"]}, {"conceptId": "C191061", "definition": "Modified Van Assche Index - Hyperintensity T2-weighted images.", "preferredTerm": "MVAI - Hyperintensity T2-weighted Images", "submissionValue": "MVAI1-Hyperintensity T2-weighted Images", "synonyms": ["MVAI1-Hyperintensity T2-weighted Images"]}, {"conceptId": "C191063", "definition": "Modified Van Assche Index - Inflammatory mass.", "preferredTerm": "MVAI - Inflammatory Mass", "submissionValue": "MVAI1-Inflammatory Mass", "synonyms": ["MVAI1-Inflammatory Mass"]}, {"conceptId": "C191062", "definition": "Modified Van Assche Index - Rectal wall involvement.", "preferredTerm": "MVAI - Rectal Wall Involvement", "submissionValue": "MVAI1-Rectal Wall Involvement", "synonyms": ["MVAI1-Rectal Wall Involvement"]}, {"conceptId": "C191065", "definition": "Modified Van Assche Index - Total score.", "preferredTerm": "MVAI - Total Score", "submissionValue": "MVAI1-Total Score", "synonyms": ["MVAI1-Total Score"]}]}