{"_links": {"parentPackage": {"href": "/mdr/ct/packages/sdtmct-2023-06-30", "title": "SDTM Controlled Terminology Package 54 Effective 2023-06-30", "type": "Terminology"}, "priorVersion": {"href": "/mdr/ct/packages/sdtmct-2023-03-31/codelists/C190894", "title": "CDISC Clinical Classification Modified Van Assche Index MVAI101 Standardized Character Response Terminology", "type": "Code List"}, "rootItem": {"href": "/mdr/root/ct/sdtmct/codelists/C190894", "title": "Version-agnostic anchor resource for codelist C190894", "type": "Root Value Domain"}, "self": {"href": "/mdr/ct/packages/sdtmct-2023-06-30/codelists/C190894", "title": "CDISC Clinical Classification Modified Van Assche Index MVAI101 Standardized Character Response Terminology", "type": "Code List"}}, "conceptId": "C190894", "definition": "Modified Van Assche Index standardized character result for MVAI101 test and test code.", "extensible": "false", "name": "Modified Van Assche Index Clinical Classification STRESC for MVAI101 TN/TC", "preferredTerm": "CDISC Clinical Classification Modified Van Assche Index MVAI101 Standardized Character Response Terminology", "submissionValue": "MVAI101STR", "synonyms": ["Modified Van Assche Index Clinical Classification STRESC for MVAI101 TN/TC"], "terms": [{"conceptId": "C190992", "definition": "Modified Van Assche Index standardized character result for MVAI101-Absent.", "preferredTerm": "Modified Van Assche Index MVAI101 Standardized Character Result 0", "submissionValue": "0", "synonyms": ["MVAI101-0"]}, {"conceptId": "C190993", "definition": "Modified Van Assche Index standardized character result for MVAI101-Infralevatoric.", "preferredTerm": "Modified Van Assche Index MVAI101 Standardized Character Result 1", "submissionValue": "1", "synonyms": ["MVAI101-1"]}, {"conceptId": "C190994", "definition": "Modified Van Assche Index standardized character result for MVAI101-Horseshoe configuration.", "preferredTerm": "Modified Van Assche Index MVAI101 Standardized Character Result 2", "submissionValue": "2", "synonyms": ["MVAI101-2"]}, {"conceptId": "C190995", "definition": "Modified Van Assche Index standardized character result for MVAI101-Supralevatoric.", "preferredTerm": "Modified Van Assche Index MVAI101 Standardized Character Result 3", "submissionValue": "3", "synonyms": ["MVAI101-3"]}]}