{"_links": {"parentPackage": {"href": "/mdr/ct/packages/sdtmct-2023-06-30", "title": "SDTM Controlled Terminology Package 54 Effective 2023-06-30", "type": "Terminology"}, "priorVersion": {"href": "/mdr/ct/packages/sdtmct-2023-03-31/codelists/C190930", "title": "CDISC Clinical Classification Modified Van Assche Index Test Code Terminology", "type": "Code List"}, "rootItem": {"href": "/mdr/root/ct/sdtmct/codelists/C190930", "title": "Version-agnostic anchor resource for codelist C190930", "type": "Root Value Domain"}, "self": {"href": "/mdr/ct/packages/sdtmct-2023-06-30/codelists/C190930", "title": "CDISC Clinical Classification Modified Van Assche Index Test Code Terminology", "type": "Code List"}}, "conceptId": "C190930", "definition": "Modified Van Assche Index test code.", "extensible": "false", "name": "Modified Van Assche Index Clinical Classification Test Code", "preferredTerm": "CDISC Clinical Classification Modified Van Assche Index Test Code Terminology", "submissionValue": "MVAI1TC", "synonyms": ["Modified Van Assche Index Clinical Classification Test Code"], "terms": [{"conceptId": "C191060", "definition": "Modified Van Assche Index - Extension.", "preferredTerm": "MVAI - Extension", "submissionValue": "MVAI101", "synonyms": ["MVAI1-Extension"]}, {"conceptId": "C191061", "definition": "Modified Van Assche Index - Hyperintensity T2-weighted images.", "preferredTerm": "MVAI - Hyperintensity T2-weighted Images", "submissionValue": "MVAI102", "synonyms": ["MVAI1-Hyperintensity T2-weighted Images"]}, {"conceptId": "C191062", "definition": "Modified Van Assche Index - Rectal wall involvement.", "preferredTerm": "MVAI - Rectal Wall Involvement", "submissionValue": "MVAI103", "synonyms": ["MVAI1-Rectal Wall Involvement"]}, {"conceptId": "C191063", "definition": "Modified Van Assche Index - Inflammatory mass.", "preferredTerm": "MVAI - Inflammatory Mass", "submissionValue": "MVAI104", "synonyms": ["MVAI1-Inflammatory Mass"]}, {"conceptId": "C191064", "definition": "Modified Van Assche Index - Dominant feature.", "preferredTerm": "MVAI - Dominant Feature", "submissionValue": "MVAI105", "synonyms": ["MVAI1-Dominant Feature"]}, {"conceptId": "C191065", "definition": "Modified Van Assche Index - Total score.", "preferredTerm": "MVAI - Total Score", "submissionValue": "MVAI106", "synonyms": ["MVAI1-Total Score"]}]}