{"_links": {"parentPackage": {"href": "/mdr/ct/packages/sdtmct-2023-06-30", "title": "SDTM Controlled Terminology Package 54 Effective 2023-06-30", "type": "Terminology"}, "priorVersion": {"href": "/mdr/ct/packages/sdtmct-2023-03-31/codelists/C190927", "title": "CDISC Clinical Classification Montreal Classification for Crohn's Disease Test Name Terminology", "type": "Code List"}, "rootItem": {"href": "/mdr/root/ct/sdtmct/codelists/C190927", "title": "Version-agnostic anchor resource for codelist C190927", "type": "Root Value Domain"}, "self": {"href": "/mdr/ct/packages/sdtmct-2023-06-30/codelists/C190927", "title": "CDISC Clinical Classification Montreal Classification for Crohn's Disease Test Name Terminology", "type": "Code List"}}, "conceptId": "C190927", "definition": "Montreal Classification for Crohn's Disease test name.", "extensible": "false", "name": "Montreal Classification for Crohn's Disease Clinical Classification Test Name", "preferredTerm": "CDISC Clinical Classification Montreal Classification for Crohn's Disease Test Name Terminology", "submissionValue": "MCHR01TN", "synonyms": ["Montreal Classification for Crohn's Disease Clinical Classification Test Name"], "terms": [{"conceptId": "C191057", "definition": "Montreal Classification for Crohn's Disease - Age at diagnosis (A).", "preferredTerm": "Montreal Classification - Age at Diagnosis", "submissionValue": "MCHR01-Age at Diagnosis", "synonyms": ["MCHR01-Age at Diagnosis"]}, {"conceptId": "C191059", "definition": "Montreal Classification for Crohn's Disease - Behavior (B).", "preferredTerm": "Montreal Classification - Behavior", "submissionValue": "MCHR01-Behavior", "synonyms": ["MCHR01-Behavior"]}, {"conceptId": "C191058", "definition": "Montreal Classification for Crohn's Disease - Location (L).", "preferredTerm": "Montreal Classification - Location", "submissionValue": "MCHR01-Location", "synonyms": ["MCHR01-Location"]}]}