{"_links": {"parentPackage": {"href": "/mdr/ct/packages/sdtmct-2023-06-30", "title": "SDTM Controlled Terminology Package 54 Effective 2023-06-30", "type": "Terminology"}, "priorVersion": {"href": "/mdr/ct/packages/sdtmct-2023-03-31/codelists/C190928", "title": "CDISC Clinical Classification Montreal Classification for Crohn's Disease Test Code Terminology", "type": "Code List"}, "rootItem": {"href": "/mdr/root/ct/sdtmct/codelists/C190928", "title": "Version-agnostic anchor resource for codelist C190928", "type": "Root Value Domain"}, "self": {"href": "/mdr/ct/packages/sdtmct-2023-06-30/codelists/C190928", "title": "CDISC Clinical Classification Montreal Classification for Crohn's Disease Test Code Terminology", "type": "Code List"}}, "conceptId": "C190928", "definition": "Montreal Classification for Crohn's Disease test code.", "extensible": "false", "name": "Montreal Classification for Crohn's Disease Clinical Classification Test Code", "preferredTerm": "CDISC Clinical Classification Montreal Classification for Crohn's Disease Test Code Terminology", "submissionValue": "MCHR01TC", "synonyms": ["Montreal Classification for Crohn's Disease Clinical Classification Test Code"], "terms": [{"conceptId": "C191057", "definition": "Montreal Classification for Crohn's Disease - Age at diagnosis (A).", "preferredTerm": "Montreal Classification - Age at Diagnosis", "submissionValue": "MCHR0101", "synonyms": ["MCHR01-Age at Diagnosis"]}, {"conceptId": "C191058", "definition": "Montreal Classification for Crohn's Disease - Location (L).", "preferredTerm": "Montreal Classification - Location", "submissionValue": "MCHR0102", "synonyms": ["MCHR01-Location"]}, {"conceptId": "C191059", "definition": "Montreal Classification for Crohn's Disease - Behavior (B).", "preferredTerm": "Montreal Classification - Behavior", "submissionValue": "MCHR0103", "synonyms": ["MCHR01-Behavior"]}]}