{"_links": {"parentPackage": {"href": "/mdr/ct/packages/sdtmct-2023-06-30", "title": "SDTM Controlled Terminology Package 54 Effective 2023-06-30", "type": "Terminology"}, "priorVersion": {"href": "/mdr/ct/packages/sdtmct-2023-03-31/codelists/C190893", "title": "CDISC Clinical Classification Modified Van Assche Index MVAI101 Original Response Terminology", "type": "Code List"}, "rootItem": {"href": "/mdr/root/ct/sdtmct/codelists/C190893", "title": "Version-agnostic anchor resource for codelist C190893", "type": "Root Value Domain"}, "self": {"href": "/mdr/ct/packages/sdtmct-2023-06-30/codelists/C190893", "title": "CDISC Clinical Classification Modified Van Assche Index MVAI101 Original Response Terminology", "type": "Code List"}}, "conceptId": "C190893", "definition": "Modified Van Assche Index original result for MVAI101 test and test code.", "extensible": "false", "name": "Modified Van Assche Index Clinical Classification ORRES for MVAI101 TN/TC", "preferredTerm": "CDISC Clinical Classification Modified Van Assche Index MVAI101 Original Response Terminology", "submissionValue": "MVAI101OR", "synonyms": ["Modified Van Assche Index Clinical Classification ORRES for MVAI101 TN/TC"], "terms": [{"conceptId": "C190988", "definition": "Modified Van Assche Index original result for MVAI101-Absent.", "preferredTerm": "Modified Van Assche Index MVAI101 Original Result - Absent", "submissionValue": "Absent", "synonyms": ["MVAI101-Absent"]}, {"conceptId": "C190990", "definition": "Modified Van Assche Index original result for MVAI101-Horseshoe configuration.", "preferredTerm": "Modified Van Assche Index MVAI101 Original Result - Horseshoe Configuration", "submissionValue": "Horseshoe configuration", "synonyms": ["MVAI101-Horseshoe configuration"]}, {"conceptId": "C190989", "definition": "Modified Van Assche Index original result for MVAI101-Infralevatoric.", "preferredTerm": "Modified Van Assche Index MVAI101 Original Result - Infralevatoric", "submissionValue": "Infralevatoric", "synonyms": ["MVAI101-Infralevatoric"]}, {"conceptId": "C190991", "definition": "Modified Van Assche Index original result for MVAI101-Supralevatoric.", "preferredTerm": "Modified Van Assche Index MVAI101 Original Result - Supralevatoric", "submissionValue": "Supralevatoric", "synonyms": ["MVAI101-Supralevatoric"]}]}