{"_links": {"parentPackage": {"href": "/mdr/ct/packages/sdtmct-2023-06-30", "title": "SDTM Controlled Terminology Package 54 Effective 2023-06-30", "type": "Terminology"}, "priorVersion": {"href": "/mdr/ct/packages/sdtmct-2023-03-31/codelists/C190862", "title": "CDISC SDTM Auricular Findings Test Name Terminology", "type": "Code List"}, "rootItem": {"href": "/mdr/root/ct/sdtmct/codelists/C190862", "title": "Version-agnostic anchor resource for codelist C190862", "type": "Root Value Domain"}, "self": {"href": "/mdr/ct/packages/sdtmct-2023-06-30/codelists/C190862", "title": "CDISC SDTM Auricular Findings Test Name Terminology", "type": "Code List"}}, "conceptId": "C190862", "definition": "A terminology codelist to describe the test name for a physiological examination of the auditory system.", "extensible": "true", "name": "Auricular Findings Test Name", "preferredTerm": "CDISC SDTM Auricular Findings Test Name Terminology", "submissionValue": "AUTEST", "synonyms": ["Auricular Findings Test Name"], "terms": [{"conceptId": "C198232", "definition": "The force exerted by air upon a surface.", "preferredTerm": "Air Pressure", "submissionValue": "Air Pressure", "synonyms": ["Air Pressure"]}, {"conceptId": "C198231", "definition": "A relative assessment of sound transmission through air conduction versus bone conduction.", "preferredTerm": "Air to Bone Sound Conduction Comparison", "submissionValue": "Air to Bone Sound Conduction Comparison", "synonyms": ["Air to Bone Sound Conduction Comparison"]}, {"conceptId": "C184949", "definition": "An assessment of auditory brainstem function in response to auditory stimuli.", "preferredTerm": "Auditory Brainstem Response", "submissionValue": "Auditory Brainstem Response", "synonyms": ["Auditory Brainstem Response"]}, {"conceptId": "C198233", "definition": "An auditory assessment that determines the perceived relative volume of sound in the left and right cochlea.", "preferredTerm": "Hearing Lateralization", "submissionValue": "Hearing Lateralization", "synonyms": ["Auditory Lateralization", "Hearing Lateralization"]}, {"conceptId": "C198234", "definition": "An assessment of the otoacoustic sound emissions from the cochlea when stimulated by soft clicking sounds introduced into the ear canal.", "preferredTerm": "Otoacoustic Emission", "submissionValue": "Otoacoustic Emission", "synonyms": ["Otoacoustic Emission"]}, {"conceptId": "C67337", "definition": "An index reflecting distensibility of elastic organ(s) defined as the change in volume per unit change in pressure (dV/dP).", "preferredTerm": "Index of Expandability", "submissionValue": "Physiological Compliance", "synonyms": ["Physiological Compliance"]}, {"conceptId": "C191216", "definition": "An interpretive summary of the tympanogram tracing result.", "preferredTerm": "Tympanogram Tracing Type", "submissionValue": "Tympanogram Tracing Type", "synonyms": ["Tympanogram Tracing Type", "Tympanogram Type"]}, {"conceptId": "C74720", "definition": "A measurement of the amount of three dimensional space occupied by an object or the capacity of a space or container.", "preferredTerm": "Volume Measurement", "submissionValue": "Volume", "synonyms": ["Volume"]}]}