{"_links": {"parentPackage": {"href": "/mdr/ct/packages/sdtmct-2023-06-30", "title": "SDTM Controlled Terminology Package 54 Effective 2023-06-30", "type": "Terminology"}, "priorVersion": {"href": "/mdr/ct/packages/sdtmct-2023-03-31/codelists/C190892", "title": "CDISC Clinical Classification Harvey-Bradshaw Index HBI0105A Through HBI0105H Standardized Character Response Terminology", "type": "Code List"}, "rootItem": {"href": "/mdr/root/ct/sdtmct/codelists/C190892", "title": "Version-agnostic anchor resource for codelist C190892", "type": "Root Value Domain"}, "self": {"href": "/mdr/ct/packages/sdtmct-2023-06-30/codelists/C190892", "title": "CDISC Clinical Classification Harvey-Bradshaw Index HBI0105A Through HBI0105H Standardized Character Response Terminology", "type": "Code List"}}, "conceptId": "C190892", "definition": "Harvey-Bradshaw Index standardized character result for HBI0105A through HBI0105H test and test code.", "extensible": "false", "name": "Harvey-Bradshaw Index Clinical Classification STRESC for HBI0105A Through HBI0105H TN/TC", "preferredTerm": "CDISC Clinical Classification Harvey-Bradshaw Index HBI0105A Through HBI0105H Standardized Character Response Terminology", "submissionValue": "HBI0105AT05HSTR", "synonyms": ["Harvey-Bradshaw Index Clinical Classification STRESC for HBI0105A Through HBI0105H TN/TC"], "terms": [{"conceptId": "C190986", "definition": "Harvey-Bradshaw Index standardized character result for HBI0105A through HBI0105H-No.", "preferredTerm": "Harvey-Bradshaw Index HBI0105A Through HBI0105H Standardized Character Result 0", "submissionValue": "0", "synonyms": ["HBI0105A through HBI0105H-0"]}, {"conceptId": "C190987", "definition": "Harvey-Bradshaw Index standardized character result for HBI0105A through HBI0105H-Yes.", "preferredTerm": "Harvey-Bradshaw Index HBI0105A Through HBI0105H Standardized Character Result 1", "submissionValue": "1", "synonyms": ["HBI0105A through HBI0105H-1"]}]}