{"_links": {"parentPackage": {"href": "/mdr/ct/packages/sdtmct-2023-06-30", "title": "SDTM Controlled Terminology Package 54 Effective 2023-06-30", "type": "Terminology"}, "priorVersion": {"href": "/mdr/ct/packages/sdtmct-2023-03-31/codelists/C193276", "title": "CDISC Questionnaire Falls Efficacy Scale Test Code Terminology", "type": "Code List"}, "rootItem": {"href": "/mdr/root/ct/sdtmct/codelists/C193276", "title": "Version-agnostic anchor resource for codelist C193276", "type": "Root Value Domain"}, "self": {"href": "/mdr/ct/packages/sdtmct-2023-06-30/codelists/C193276", "title": "CDISC Questionnaire Falls Efficacy Scale Test Code Terminology", "type": "Code List"}}, "conceptId": "C193276", "definition": "Falls Efficacy Scale test code.", "extensible": "false", "name": "Falls Efficacy Scale Questionnaire Test Code", "preferredTerm": "CDISC Questionnaire Falls Efficacy Scale Test Code Terminology", "submissionValue": "FES01TC", "synonyms": ["Falls Efficacy Scale Questionnaire Test Code"], "terms": [{"conceptId": "C193363", "definition": "Falls Efficacy Scale - Take a bath or shower.", "preferredTerm": "FES - Take a Bath or Shower", "submissionValue": "FES0101", "synonyms": ["FES01-Take a Bath or Shower"]}, {"conceptId": "C193364", "definition": "Falls Efficacy Scale - Reach into cabinets or closets.", "preferredTerm": "FES - Reach Into Cabinets or Closets", "submissionValue": "FES0102", "synonyms": ["FES01-Reach Into Cabinets or Closets"]}, {"conceptId": "C193365", "definition": "Falls Efficacy Scale - Walk around the house.", "preferredTerm": "FES - Walk Around the House", "submissionValue": "FES0103", "synonyms": ["FES01-Walk Around the House"]}, {"conceptId": "C193366", "definition": "Falls Efficacy Scale - Prepare meals not requiring carrying heavy or hot objects.", "preferredTerm": "FES - Prepare Meals Not Carrying Objects", "submissionValue": "FES0104", "synonyms": ["FES01-Prepare Meals Not Carrying Objects"]}, {"conceptId": "C193367", "definition": "Falls Efficacy Scale - Get in and out of bed.", "preferredTerm": "FES - Get In and Out of Bed", "submissionValue": "FES0105", "synonyms": ["FES01-Get In and Out of Bed"]}, {"conceptId": "C193368", "definition": "Falls Efficacy Scale - Answer the door or telephone.", "preferredTerm": "FES - Answer the Door or Telephone", "submissionValue": "FES0106", "synonyms": ["FES01-Answer the Door or Telephone"]}, {"conceptId": "C193369", "definition": "Falls Efficacy Scale - Get in and out of a chair.", "preferredTerm": "FES - Get In and Out of Chair", "submissionValue": "FES0107", "synonyms": ["FES01-Get In and Out of Chair"]}, {"conceptId": "C193370", "definition": "Falls Efficacy Scale - Get dressed and undressed.", "preferredTerm": "FES - Get Dressed and Undressed", "submissionValue": "FES0108", "synonyms": ["FES01-Get Dressed and Undressed"]}, {"conceptId": "C193371", "definition": "Falls Efficacy Scale - Personal grooming (i.e. washing your face).", "preferredTerm": "FES - Personal Grooming", "submissionValue": "FES0109", "synonyms": ["FES01-Personal Grooming"]}, {"conceptId": "C193372", "definition": "Falls Efficacy Scale - Get on and off of the toilet.", "preferredTerm": "FES - Get On and Off of Toilet", "submissionValue": "FES0110", "synonyms": ["FES01-Get On and Off of Toilet"]}]}