{"_links": {"parentPackage": {"href": "/mdr/ct/packages/sdtmct-2023-06-30", "title": "SDTM Controlled Terminology Package 54 Effective 2023-06-30", "type": "Terminology"}, "priorVersion": {"href": "/mdr/ct/packages/sdtmct-2023-03-31/codelists/C193263", "title": "CDISC Clinical Classification Tanner Scale Boy TANN0202 Original Response Terminology", "type": "Code List"}, "rootItem": {"href": "/mdr/root/ct/sdtmct/codelists/C193263", "title": "Version-agnostic anchor resource for codelist C193263", "type": "Root Value Domain"}, "self": {"href": "/mdr/ct/packages/sdtmct-2023-06-30/codelists/C193263", "title": "CDISC Clinical Classification Tanner Scale Boy TANN0202 Original Response Terminology", "type": "Code List"}}, "conceptId": "C193263", "definition": "Tanner Scale Boy original result for TANN0202 test and test code.", "extensible": "false", "name": "Tanner Scale Boy Clinical Classification ORRES for TANN0202 TN/TC", "preferredTerm": "CDISC Clinical Classification Tanner Scale Boy TANN0202 Original Response Terminology", "submissionValue": "TANN0202OR", "synonyms": ["Tanner Scale Boy Clinical Classification ORRES for TANN0202 TN/TC"], "terms": [{"conceptId": "C193314", "definition": "Tanner Scale Boy original result for TANN0202-Stage 1: Pre-adolescent. The velus over the pubes is no further developed than that over the abdominal wall, i.e. no pubic hair.", "preferredTerm": "Tanner Scale Boy TANN0202 Original Result - Stage 1", "submissionValue": "Stage 1", "synonyms": ["TANN0202-Stage 1"]}, {"conceptId": "C193315", "definition": "Tanner Scale Boy original result for TANN0202-Stage 2: Sparse growth of long, slightly pigmented, downy hair, straight or only slightly curled, appearing chiefly at the base of the penis. This stage is difficult to see on photographs, particularly of fair-haired subjects. Although the rating 'Stage 2' was used in this study, it cannot be regarded as reliable, and the ages at which subjects are said to have reached Stage 2 are almost certainly too late.", "preferredTerm": "Tanner Scale Boy TANN0202 Original Result - Stage 2", "submissionValue": "Stage 2", "synonyms": ["TANN0202-Stage 2"]}, {"conceptId": "C193316", "definition": "Tanner Scale Boy original result for TANN0202-Stage 3: Considerably darker, coarser, and more curled. The hair spreads sparsely over the junction of the pubes. This and subsequent stages were clearly recognizable on the photographs.", "preferredTerm": "Tanner Scale Boy TANN0202 Original Result - Stage 3", "submissionValue": "Stage 3", "synonyms": ["TANN0202-Stage 3"]}, {"conceptId": "C193317", "definition": "Tanner Scale Boy original result for TANN0202-Stage 4: Hair is now adult in type, but the area covered by it is still considerably smaller than in most adults. There is no spread to the medial surface of the thighs.", "preferredTerm": "Tanner Scale Boy TANN0202 Original Result - Stage 4", "submissionValue": "Stage 4", "synonyms": ["TANN0202-Stage 4"]}, {"conceptId": "C193318", "definition": "Tanner Scale Boy original result for TANN0202-Stage 5: Adult in quantity and type, distributed as an inverse triangle of the classically feminine pattern. Spread to the medial surface of the thighs but not up the linea alba or elsewhere above the base of the inverse triangle.", "preferredTerm": "Tanner Scale Boy TANN0202 Original Result - Stage 5", "submissionValue": "Stage 5", "synonyms": ["TANN0202-Stage 5"]}]}