{"_links": {"parentPackage": {"href": "/mdr/ct/packages/sdtmct-2023-06-30", "title": "SDTM Controlled Terminology Package 54 Effective 2023-06-30", "type": "Terminology"}, "priorVersion": {"href": "/mdr/ct/packages/sdtmct-2023-03-31/codelists/C193258", "title": "CDISC Clinical Classification Tanner Scale Girl TANN0101 Standardized Character Response Terminology", "type": "Code List"}, "rootItem": {"href": "/mdr/root/ct/sdtmct/codelists/C193258", "title": "Version-agnostic anchor resource for codelist C193258", "type": "Root Value Domain"}, "self": {"href": "/mdr/ct/packages/sdtmct-2023-06-30/codelists/C193258", "title": "CDISC Clinical Classification Tanner Scale Girl TANN0101 Standardized Character Response Terminology", "type": "Code List"}}, "conceptId": "C193258", "definition": "Tanner Scale Girl standardized character result for TANN0101 test and test code.", "extensible": "false", "name": "Tanner Scale Girl Clinical Classification STRESC for TANN0101 TN/TC", "preferredTerm": "CDISC Clinical Classification Tanner Scale Girl TANN0101 Standardized Character Response Terminology", "submissionValue": "TANN0101STR", "synonyms": ["Tanner Scale Girl Clinical Classification STRESC for TANN0101 TN/TC"], "terms": [{"conceptId": "C193289", "definition": "Tanner Scale Girl standardized character result for TANN0101-Stage 1: Pre-adolescent; elevation of papilla only.", "preferredTerm": "Tanner Scale Girl TANN0101 Standardized Character Result Stage 1", "submissionValue": "Stage 1", "synonyms": ["TANN0101-Stage 1"]}, {"conceptId": "C193290", "definition": "Tanner Scale Girl standardized character result for TANN0101-Stage 2: Breast bud stage; elevation of breast and papilla as a small mound, enlargement of areola diameter.", "preferredTerm": "Tanner Scale Girl TANN0101 Standardized Character Result Stage 2", "submissionValue": "Stage 2", "synonyms": ["TANN0101-Stage 2"]}, {"conceptId": "C193291", "definition": "Tanner Scale Girl standardized character result for TANN0101-Stage 3: Further enlargement of breast and areola, with no separation of their contours.", "preferredTerm": "Tanner Scale Girl TANN0101 Standardized Character Result Stage 3", "submissionValue": "Stage 3", "synonyms": ["TANN0101-Stage 3"]}, {"conceptId": "C193292", "definition": "Tanner Scale Girl standardized character result for TANN0101-Stage 4: Projection of areola and papilla to form a secondary mound above the level of the breast.", "preferredTerm": "Tanner Scale Girl TANN0101 Standardized Character Result Stage 4", "submissionValue": "Stage 4", "synonyms": ["TANN0101-Stage 4"]}, {"conceptId": "C193293", "definition": "Tanner Scale Girl standardized character result for TANN0101-Stage 5: Mature stage; projection of papilla only, due to recession of the areola to the general contour of the breast.", "preferredTerm": "Tanner Scale Girl TANN0101 Standardized Character Result Stage 5", "submissionValue": "Stage 5", "synonyms": ["TANN0101-Stage 5"]}]}