{"_links": {"parentPackage": {"href": "/mdr/ct/packages/sdtmct-2023-06-30", "title": "SDTM Controlled Terminology Package 54 Effective 2023-06-30", "type": "Terminology"}, "rootItem": {"href": "/mdr/root/ct/sdtmct/codelists/C199497", "title": "Version-agnostic anchor resource for codelist C199497", "type": "Root Value Domain"}, "self": {"href": "/mdr/ct/packages/sdtmct-2023-06-30/codelists/C199497", "title": "CDISC Brief Questionnaire of Smoking Urges Test Code Terminology", "type": "Code List"}}, "conceptId": "C199497", "definition": "Questionnaire on Smoking Urges-Brief test code.", "extensible": "false", "name": "Questionnaire on Smoking Urges-Brief Test Code", "preferredTerm": "CDISC Brief Questionnaire of Smoking Urges Test Code Terminology", "submissionValue": "QSUB01TC", "synonyms": ["Questionnaire on Smoking Urges-Brief Test Code"], "terms": [{"conceptId": "C199527", "definition": "Questionnaire on Smoking Urges-Brief - I have a desire for a cigarette right now.", "preferredTerm": "Brief Questionnaire of Smoking Urges - Desire Cigarette Right Now", "submissionValue": "QSUB0101", "synonyms": ["QSUB01-Desire Cigarette Right Now"]}, {"conceptId": "C199528", "definition": "Questionnaire on Smoking Urges-Brief - Nothing would be better than smoking a cigarette right now.", "preferredTerm": "Brief Questionnaire of Smoking Urges - Nothing Better Than Cigarette Now", "submissionValue": "QSUB0102", "synonyms": ["QSUB01-Nothing Better Than Cigarette Now"]}, {"conceptId": "C199529", "definition": "Questionnaire on Smoking Urges-Brief - If it were possible, I probably would smoke now.", "preferredTerm": "Brief Questionnaire of Smoking Urges - Probably Would Smoke Now", "submissionValue": "QSUB0103", "synonyms": ["QSUB01-Probably Would Smoke Now"]}, {"conceptId": "C199530", "definition": "Questionnaire on Smoking Urges-Brief - I could control things better right now if I could smoke.", "preferredTerm": "Brief Questionnaire of Smoking Urges - Control Things Better Could Smoke", "submissionValue": "QSUB0104", "synonyms": ["QSUB01-Control Things Better Could Smoke"]}, {"conceptId": "C199531", "definition": "Questionnaire on Smoking Urges-Brief - All I want right now is a cigarette.", "preferredTerm": "Brief Questionnaire of Smoking Urges - All I Want Right Now Is Cigarette", "submissionValue": "QSUB0105", "synonyms": ["QSUB01-All I Want Right Now Is Cigarette"]}, {"conceptId": "C199532", "definition": "Questionnaire on Smoking Urges-Brief - I have an urge for a cigarette.", "preferredTerm": "Brief Questionnaire of Smoking Urges - Have an Urge for a Cigarette", "submissionValue": "QSUB0106", "synonyms": ["QSUB01-Have an Urge for a Cigarette"]}, {"conceptId": "C199533", "definition": "Questionnaire on Smoking Urges-Brief - A cigarette would taste good now.", "preferredTerm": "Brief Questionnaire of Smoking Urges - A Cigarette Would Taste Good Now", "submissionValue": "QSUB0107", "synonyms": ["QSUB01-A Cigarette Would Taste Good Now"]}, {"conceptId": "C199534", "definition": "Questionnaire on Smoking Urges-Brief - I would do almost anything for a cigarette right now.", "preferredTerm": "Brief Questionnaire of Smoking Urges - Do Anything for a Cigarette Now", "submissionValue": "QSUB0108", "synonyms": ["QSUB01-Do Anything for a Cigarette Now"]}, {"conceptId": "C199535", "definition": "Questionnaire on Smoking Urges-Brief - Smoking would make me less depressed.", "preferredTerm": "Brief Questionnaire of Smoking Urges - Smoking Make Me Less Depressed", "submissionValue": "QSUB0109", "synonyms": ["QSUB01-Smoking Make Me Less Depressed"]}, {"conceptId": "C199536", "definition": "Questionnaire on Smoking Urges-Brief - I am going to smoke as soon as possible.", "preferredTerm": "Brief Questionnaire of Smoking Urges - Going Smoke as Soon as Possible", "submissionValue": "QSUB0110", "synonyms": ["QSUB01-Going Smoke as Soon as Possible"]}, {"conceptId": "C199537", "definition": "Questionnaire on Smoking Urges-Brief - Factor 1 scale.", "preferredTerm": "Brief Questionnaire of Smoking Urges - Factor 1 Scale", "submissionValue": "QSUB0111", "synonyms": ["QSUB01-Factor 1 Scale"]}, {"conceptId": "C199538", "definition": "Questionnaire on Smoking Urges-Brief - Factor 2 scale.", "preferredTerm": "Brief Questionnaire of Smoking Urges - Factor 2 Scale", "submissionValue": "QSUB0112", "synonyms": ["QSUB01-Factor 2 Scale"]}, {"conceptId": "C199539", "definition": "Questionnaire on Smoking Urges-Brief - General factor scale.", "preferredTerm": "Brief Questionnaire of Smoking Urges - General Factor Scale", "submissionValue": "QSUB0113", "synonyms": ["QSUB01-General Factor Scale"]}]}