{"_links": {"parentPackage": {"href": "/mdr/ct/packages/sdtmct-2023-06-30", "title": "SDTM Controlled Terminology Package 54 Effective 2023-06-30", "type": "Terminology"}, "rootItem": {"href": "/mdr/root/ct/sdtmct/codelists/C199510", "title": "Version-agnostic anchor resource for codelist C199510", "type": "Root Value Domain"}, "self": {"href": "/mdr/ct/packages/sdtmct-2023-06-30/codelists/C199510", "title": "CDISC Clinical Classification Canadian Cardiovascular Society Grading of Angina Pectoris TCCSGA101 Original Response Terminology", "type": "Code List"}}, "conceptId": "C199510", "definition": "Canadian Cardiovascular Society Grading Scale of Angina Pectoris original result for CCSGA101 test and test code.", "extensible": "false", "name": "Canadian Cardiovascular Society Grading Scale of Angina Pectoris Clinical Classification ORRES for CCSGAS101 TN/TC", "preferredTerm": "CDISC Clinical Classification Canadian Cardiovascular Society Grading of Angina Pectoris TCCSGA101 Original Response Terminology", "submissionValue": "TCCSGA101OR", "synonyms": ["Canadian Cardiovascular Society Grading Scale of Angina Pectoris Clinical Classification ORRES for CCSGAS101 TN/TC"], "terms": [{"conceptId": "C199563", "definition": "Canadian Cardiovascular Society Grading Scale of Angina Pectoris original result for CCSGA101-Grade I: Ordinary physical activity does not cause angina, such as walking and climbing stairs. Angina with strenuous or rapid or prolonged exertion at work or recreation.", "preferredTerm": "Canadian Cardiovascular Society Grading of Angina Pectoris CCSGA101 Original Result - Grade I", "submissionValue": "Grade I", "synonyms": ["CCSGA101-Grade I"]}, {"conceptId": "C199564", "definition": "Canadian Cardiovascular Society Grading Scale of Angina Pectoris original result for CCSGA101-Grade II: Slight limitation of ordinary activity. Walking or climbing stairs rapidly, walking uphill, walking or stair climbing after meals, or in cold, or in wind, or under emotional stress, or only during the few hours after awakening. Walking more than two blocks on the level and climbing more than one flight of ordinary stairs at a normal pace and in normal conditions.", "preferredTerm": "Canadian Cardiovascular Society Grading of Angina Pectoris CCSGA101 Original Result - Grade II", "submissionValue": "Grade II", "synonyms": ["CCSGA101-Grade II"]}, {"conceptId": "C199565", "definition": "Canadian Cardiovascular Society Grading Scale of Angina Pectoris original result for CCSGA101-Grade III: Marked limitation of ordinary physical activity. Walking one or two blocks on the level and climbing one flight of stairs in normal conditions and at normal pace.", "preferredTerm": "Canadian Cardiovascular Society Grading of Angina Pectoris CCSGA101 Original Result - Grade III", "submissionValue": "Grade III", "synonyms": ["CCSGA101-Grade III"]}, {"conceptId": "C199566", "definition": "Canadian Cardiovascular Society Grading Scale of Angina Pectoris original result for CCSGA101-Grade IV: Inability to carry on any physical activity without discomfort, anginal syndrome may be present at rest.", "preferredTerm": "Canadian Cardiovascular Society Grading of Angina Pectoris CCSGA101 Original Result - Grade IV", "submissionValue": "Grade IV", "synonyms": ["CCSGA101-Grade IV"]}]}