{"_links": {"parentPackage": {"href": "/mdr/ct/packages/sdtmct-2023-06-30", "title": "SDTM Controlled Terminology Package 54 Effective 2023-06-30", "type": "Terminology"}, "rootItem": {"href": "/mdr/root/ct/sdtmct/codelists/C199495", "title": "Version-agnostic anchor resource for codelist C199495", "type": "Root Value Domain"}, "self": {"href": "/mdr/ct/packages/sdtmct-2023-06-30/codelists/C199495", "title": "CDISC Questionnaire Observer Global Impression Generic Modification Version Test Code Terminology", "type": "Code List"}}, "conceptId": "C199495", "definition": "Observer Global Impression Generic Modification Version test code.", "extensible": "false", "name": "Observer Global Impression Generic Modification Version Questionnaire Test Code", "preferredTerm": "CDISC Questionnaire Observer Global Impression Generic Modification Version Test Code Terminology", "submissionValue": "OGI01TC", "synonyms": ["Observer Global Impression Generic Modification Version Questionnaire Test Code"], "terms": [{"conceptId": "C199524", "definition": "Observer Global Impression - Considering all the ways your condition impacts you, how severe is your condition at this time?", "preferredTerm": "OGI Generic Modification Version - Severity", "submissionValue": "OGI0101", "synonyms": ["OGI01-Severity"]}, {"conceptId": "C199525", "definition": "Observer Global Impression - Compared to <previously assessed protocol specified time point> how much has your condition changed?", "preferredTerm": "OGI Generic Modification Version - Change", "submissionValue": "OGI0102", "synonyms": ["OGI01-Change"]}, {"conceptId": "C199526", "definition": "Observer Global Impression - Compared to <previously assessed protocol specified time point> how much has your condition improved?", "preferredTerm": "OGI Generic Modification Version - Improvement", "submissionValue": "OGI0103", "synonyms": ["OGI01-Improvement"]}]}