{"_links": {"parentPackage": {"href": "/mdr/ct/packages/sdtmct-2023-06-30", "title": "SDTM Controlled Terminology Package 54 Effective 2023-06-30", "type": "Terminology"}, "rootItem": {"href": "/mdr/root/ct/sdtmct/codelists/C199499", "title": "Version-agnostic anchor resource for codelist C199499", "type": "Root Value Domain"}, "self": {"href": "/mdr/ct/packages/sdtmct-2023-06-30/codelists/C199499", "title": "CDISC Clinical Classification Canadian Cardiovascular Society Grading of Angina Pectoris Test Code Terminology", "type": "Code List"}}, "conceptId": "C199499", "definition": "Canadian Cardiovascular Society Grading of Angina Pectoris test code.", "extensible": "false", "name": "Canadian Cardiovascular Society Grading of Angina Pectoris Clinical Classification Test Code", "preferredTerm": "CDISC Clinical Classification Canadian Cardiovascular Society Grading of Angina Pectoris Test Code Terminology", "submissionValue": "CCSGA1TC", "synonyms": ["Canadian Cardiovascular Society Grading of Angina Pectoris Clinical Classification Test Code"], "terms": [{"conceptId": "C66910", "definition": "Canadian Cardiovascular Society Grading Scale of Angina Pectoris - Grade.", "preferredTerm": "CCS Grading of Angina Pectoris - Grade", "submissionValue": "CCSGA101", "synonyms": ["CCSGA1-Canadian CV Society Grade"]}]}