{"_links": {"parentPackage": {"href": "/mdr/ct/packages/sdtmct-2023-06-30", "title": "SDTM Controlled Terminology Package 54 Effective 2023-06-30", "type": "Terminology"}, "rootItem": {"href": "/mdr/root/ct/sdtmct/codelists/C199501", "title": "Version-agnostic anchor resource for codelist C199501", "type": "Root Value Domain"}, "self": {"href": "/mdr/ct/packages/sdtmct-2023-06-30/codelists/C199501", "title": "CDISC Clinical Classification Comfort Behavior Scale Test Code Terminology", "type": "Code List"}}, "conceptId": "C199501", "definition": "Comfort Behavior Scale test code.", "extensible": "false", "name": "Comfort Behavior Scale Clinical Classification Test Code", "preferredTerm": "CDISC Clinical Classification Comfort Behavior Scale Test Code Terminology", "submissionValue": "CBS01TC", "synonyms": ["Comfort Behavior Scale Clinical Classification Test Code"], "terms": [{"conceptId": "C199540", "definition": "Comfort Behavior Scale Assessment - Alertness.", "preferredTerm": "Comfort-B - Alertness", "submissionValue": "CBS0101", "synonyms": ["CBS01-Alertness"]}, {"conceptId": "C199541", "definition": "Comfort Behavior Scale Assessment - Calmness/Agitation.", "preferredTerm": "Comfort-B - Calmness/Agitation", "submissionValue": "CBS0102", "synonyms": ["CBS01-Calmness/Agitation"]}, {"conceptId": "C199542", "definition": "Comfort Behavior Scale Assessment - Respiratory response (only in mechanically ventilated children).", "preferredTerm": "Comfort-B - Respiratory Response", "submissionValue": "CBS0103", "synonyms": ["CBS01-Respiratory Response"]}, {"conceptId": "C199543", "definition": "Comfort Behavior Scale Assessment - Crying (only in spontaneously breathing children).", "preferredTerm": "Comfort-B - Crying", "submissionValue": "CBS0104", "synonyms": ["CBS01-Crying"]}, {"conceptId": "C199544", "definition": "Comfort Behavior Scale Assessment - Physical movement.", "preferredTerm": "Comfort-B - Physical Movement", "submissionValue": "CBS0105", "synonyms": ["CBS01-Physical Movement"]}, {"conceptId": "C199545", "definition": "Comfort Behavior Scale Assessment - Muscle tone.", "preferredTerm": "Comfort-B - Muscle Tone", "submissionValue": "CBS0106", "synonyms": ["CBS01-Muscle Tone"]}, {"conceptId": "C199546", "definition": "Comfort Behavior Scale Assessment - Facial tension.", "preferredTerm": "Comfort-B - Facial Tension", "submissionValue": "CBS0107", "synonyms": ["CBS01-Facial Tension"]}, {"conceptId": "C199547", "definition": "Comfort Behavior Scale Assessment - Total score.", "preferredTerm": "Comfort-B - Total Score", "submissionValue": "CBS0108", "synonyms": ["CBS01-Total Score"]}, {"conceptId": "C199548", "definition": "Comfort Behavior Scale Assessment - NRS pain.", "preferredTerm": "Comfort-B - NRS Pain", "submissionValue": "CBS0109", "synonyms": ["CBS01-NRS Pain"]}, {"conceptId": "C199549", "definition": "Comfort Behavior Scale Assessment - NISS (nurse interpretation of sedation sale).", "preferredTerm": "Comfort-B - NISS", "submissionValue": "CBS0110", "synonyms": ["CBS01-NISS"]}, {"conceptId": "C199550", "definition": "Comfort Behavior Scale Assessment - Details sedatives/analgesics.", "preferredTerm": "Comfort-B - Details Sedatives/Analgesics", "submissionValue": "CBS0111", "synonyms": ["CBS01-Details Sedatives/Analgesics"]}, {"conceptId": "C199551", "definition": "Comfort Behavior Scale Assessment - Reason assessment.", "preferredTerm": "Comfort-B - Reason Assessment", "submissionValue": "CBS0112", "synonyms": ["CBS01-Reason Assessment"]}]}