{"_links": {"parentPackage": {"href": "/mdr/ct/packages/sdtmct-2023-06-30", "title": "SDTM Controlled Terminology Package 54 Effective 2023-06-30", "type": "Terminology"}, "rootItem": {"href": "/mdr/root/ct/sdtmct/codelists/C199498", "title": "Version-agnostic anchor resource for codelist C199498", "type": "Root Value Domain"}, "self": {"href": "/mdr/ct/packages/sdtmct-2023-06-30/codelists/C199498", "title": "CDISC Clinical Classification Canadian Cardiovascular Society Grading of Angina Pectoris Test Name Terminology", "type": "Code List"}}, "conceptId": "C199498", "definition": "Canadian Cardiovascular Society Grading of Angina Pectoris test name.", "extensible": "false", "name": "Canadian Cardiovascular Society Grading of Angina Pectoris Clinical Classification Test Name", "preferredTerm": "CDISC Clinical Classification Canadian Cardiovascular Society Grading of Angina Pectoris Test Name Terminology", "submissionValue": "CCSGA1TN", "synonyms": ["Canadian Cardiovascular Society Grading of Angina Pectoris Clinical Classification Test Name"], "terms": [{"conceptId": "C66910", "definition": "Canadian Cardiovascular Society Grading Scale of Angina Pectoris - Grade.", "preferredTerm": "CCS Grading of Angina Pectoris - Grade", "submissionValue": "CCSGA1-Canadian CV Society Grade", "synonyms": ["CCSGA1-Canadian CV Society Grade"]}]}