{"_links": {"parentPackage": {"href": "/mdr/ct/packages/sdtmct-2023-06-30", "title": "SDTM Controlled Terminology Package 54 Effective 2023-06-30", "type": "Terminology"}, "rootItem": {"href": "/mdr/root/ct/sdtmct/codelists/C199492", "title": "Version-agnostic anchor resource for codelist C199492", "type": "Root Value Domain"}, "self": {"href": "/mdr/ct/packages/sdtmct-2023-06-30/codelists/C199492", "title": "CDISC Questionnaire Functional Assessment of Chronic Illness Therapy-Item GP5 Version 4 Test Name Terminology", "type": "Code List"}}, "conceptId": "C199492", "definition": "Functional Assessment of Chronic Illness Therapy-Item GP5 Version 4 test name.", "extensible": "false", "name": "Functional Assessment of Chronic Illness Therapy-Item GP5 Version 4 Questionnaire Test Name", "preferredTerm": "CDISC Questionnaire Functional Assessment of Chronic Illness Therapy-Item GP5 Version 4 Test Name Terminology", "submissionValue": "FAC101TN", "synonyms": ["Functional Assessment of Chronic Illness Therapy-Item GP5 Version 4 Questionnaire Test Name"], "terms": [{"conceptId": "C199523", "definition": "Functional Assessment of Chronic Illness Therapy-Item GP5 Version 4 - I am bothered by side effects of treatment.", "preferredTerm": "FACIT-Item GP5 Version 4 - Bothered by Treatment Side Effect", "submissionValue": "FAC101-Bothered by Treatment Side Effect", "synonyms": ["FAC101-Bothered by Treatment Side Effect"]}]}