{"_links": {"parentPackage": {"href": "/mdr/ct/packages/sdtmct-2023-06-30", "title": "SDTM Controlled Terminology Package 54 Effective 2023-06-30", "type": "Terminology"}, "rootItem": {"href": "/mdr/root/ct/sdtmct/codelists/C199493", "title": "Version-agnostic anchor resource for codelist C199493", "type": "Root Value Domain"}, "self": {"href": "/mdr/ct/packages/sdtmct-2023-06-30/codelists/C199493", "title": "CDISC Questionnaire Functional Assessment of Chronic Illness Therapy-Item GP5 Version 4 Test Code Terminology", "type": "Code List"}}, "conceptId": "C199493", "definition": "Functional Assessment of Chronic Illness Therapy-Item GP5 Version 4 test code.", "extensible": "false", "name": "Functional Assessment of Chronic Illness Therapy-Item GP5 Version 4 Questionnaire Test Code", "preferredTerm": "CDISC Questionnaire Functional Assessment of Chronic Illness Therapy-Item GP5 Version 4 Test Code Terminology", "submissionValue": "FAC101TC", "synonyms": ["Functional Assessment of Chronic Illness Therapy-Item GP5 Version 4 Questionnaire Test Code"], "terms": [{"conceptId": "C199523", "definition": "Functional Assessment of Chronic Illness Therapy-Item GP5 Version 4 - I am bothered by side effects of treatment.", "preferredTerm": "FACIT-Item GP5 Version 4 - Bothered by Treatment Side Effect", "submissionValue": "FAC10101", "synonyms": ["FAC101-Bothered by Treatment Side Effect"]}]}