{"_links": {"parentPackage": {"href": "/mdr/ct/packages/sdtmct-2023-06-30", "title": "SDTM Controlled Terminology Package 54 Effective 2023-06-30", "type": "Terminology"}, "rootItem": {"href": "/mdr/root/ct/sdtmct/codelists/C199502", "title": "Version-agnostic anchor resource for codelist C199502", "type": "Root Value Domain"}, "self": {"href": "/mdr/ct/packages/sdtmct-2023-06-30/codelists/C199502", "title": "CDISC Clinical Classification Cigarette Evaluation Questionnaire Extended-Screening Test Name Terminology", "type": "Code List"}}, "conceptId": "C199502", "definition": "Modified Cigarette Evaluation Questionnaire-Screening test name.", "extensible": "false", "name": "Modified Cigarette Evaluation Questionnaire-Screening Clinical Classification Test Name", "preferredTerm": "CDISC Clinical Classification Cigarette Evaluation Questionnaire Extended-Screening Test Name Terminology", "submissionValue": "MCEQ01TN", "synonyms": ["Modified Cigarette Evaluation Questionnaire-Screening Clinical Classification Test Name"], "terms": [{"conceptId": "C199555", "definition": "Modified Cigarette Evaluation Questionnaire - Did it calm you down?", "preferredTerm": "CESE-Screening - Did It Calm You Down", "submissionValue": "MCEQ01-Did It Calm You Down", "synonyms": ["MCEQ01-Did It Calm You Down"]}, {"conceptId": "C199556", "definition": "Modified Cigarette Evaluation Questionnaire - Did it help you concentrate?", "preferredTerm": "CESE-Screening - Did It Help You Concentrate", "submissionValue": "MCEQ01-Did It Help You Concentrate", "synonyms": ["MCEQ01-Did It Help You Concentrate"]}, {"conceptId": "C199562", "definition": "Modified Cigarette Evaluation Questionnaire - Did it immediately reduce your craving for cigarettes?", "preferredTerm": "CESE-Screening - Did It Immediately Reduce Craving", "submissionValue": "MCEQ01-Did It Immediately Reduce Craving", "synonyms": ["MCEQ01-Did It Immediately Reduce Craving"]}, {"conceptId": "C199554", "definition": "Modified Cigarette Evaluation Questionnaire - Did it make you dizzy?", "preferredTerm": "CESE-Screening - Did It Make You Dizzy", "submissionValue": "MCEQ01-Did It Make You Dizzy", "synonyms": ["MCEQ01-Did It Make You Dizzy"]}, {"conceptId": "C199557", "definition": "Modified Cigarette Evaluation Questionnaire - Did it make you feel more awake?", "preferredTerm": "CESE-Screening - Did It Make You Feel More Awake", "submissionValue": "MCEQ01-Did It Make You Feel More Awake", "synonyms": ["MCEQ01-Did It Make You Feel More Awake"]}, {"conceptId": "C199560", "definition": "Modified Cigarette Evaluation Questionnaire - Did it make you feel less irritable?", "preferredTerm": "CESE-Screening - Did It Make You Less Irritable", "submissionValue": "MCEQ01-Did It Make You Less Irritable", "synonyms": ["MCEQ01-Did It Make You Less Irritable"]}, {"conceptId": "C199559", "definition": "Modified Cigarette Evaluation Questionnaire - Did it make you nauseated?", "preferredTerm": "CESE-Screening - Did It Make You Nauseated", "submissionValue": "MCEQ01-Did It Make You Nauseated", "synonyms": ["MCEQ01-Did It Make You Nauseated"]}, {"conceptId": "C199558", "definition": "Modified Cigarette Evaluation Questionnaire - Did it reduce your hunger for food?", "preferredTerm": "CESE-Screening - Did It Reduce Your Hunger", "submissionValue": "MCEQ01-Did It Reduce Your Hunger", "synonyms": ["MCEQ01-Did It Reduce Your Hunger"]}, {"conceptId": "C199553", "definition": "Modified Cigarette Evaluation Questionnaire - Did it taste good?", "preferredTerm": "CESE-Screening - Did It Taste Good", "submissionValue": "MCEQ01-Did It Taste Good", "synonyms": ["MCEQ01-Did It Taste Good"]}, {"conceptId": "C199561", "definition": "Modified Cigarette Evaluation Questionnaire - Did you enjoy the sensations of the smoke in your throat and chest?", "preferredTerm": "CESE-Screening - Did You Enjoy Sensations Throat", "submissionValue": "MCEQ01-Did You Enjoy Sensations Throat", "synonyms": ["MCEQ01-Did You Enjoy Sensations Throat"]}, {"conceptId": "C199552", "definition": "Modified Cigarette Evaluation Questionnaire - Was it satisfying?", "preferredTerm": "CESE-Screening - Was It Satisfying", "submissionValue": "MCEQ01-Was It Satisfying", "synonyms": ["MCEQ01-Was It Satisfying"]}]}