{"_links": {"parentPackage": {"href": "/mdr/ct/packages/sdtmct-2023-06-30", "title": "SDTM Controlled Terminology Package 54 Effective 2023-06-30", "type": "Terminology"}, "rootItem": {"href": "/mdr/root/ct/sdtmct/codelists/C199494", "title": "Version-agnostic anchor resource for codelist C199494", "type": "Root Value Domain"}, "self": {"href": "/mdr/ct/packages/sdtmct-2023-06-30/codelists/C199494", "title": "CDISC Questionnaire Observer Global Impression Generic Modification Version Test Name Terminology", "type": "Code List"}}, "conceptId": "C199494", "definition": "Observer Global Impression Generic Modification Version test name.", "extensible": "false", "name": "Observer Global Impression Generic Modification Version Questionnaire Test Name", "preferredTerm": "CDISC Questionnaire Observer Global Impression Generic Modification Version Test Name Terminology", "submissionValue": "OGI01TN", "synonyms": ["Observer Global Impression Generic Modification Version Questionnaire Test Name"], "terms": [{"conceptId": "C199525", "definition": "Observer Global Impression - Compared to <previously assessed protocol specified time point> how much has your condition changed?", "preferredTerm": "OGI Generic Modification Version - Change", "submissionValue": "OGI01-Change", "synonyms": ["OGI01-Change"]}, {"conceptId": "C199526", "definition": "Observer Global Impression - Compared to <previously assessed protocol specified time point> how much has your condition improved?", "preferredTerm": "OGI Generic Modification Version - Improvement", "submissionValue": "OGI01-Improvement", "synonyms": ["OGI01-Improvement"]}, {"conceptId": "C199524", "definition": "Observer Global Impression - Considering all the ways your condition impacts you, how severe is your condition at this time?", "preferredTerm": "OGI Generic Modification Version - Severity", "submissionValue": "OGI01-Severity", "synonyms": ["OGI01-Severity"]}]}