{"_links": {"parentPackage": {"href": "/mdr/ct/packages/sdtmct-2023-06-30", "title": "SDTM Controlled Terminology Package 54 Effective 2023-06-30", "type": "Terminology"}, "rootItem": {"href": "/mdr/root/ct/sdtmct/codelists/C199503", "title": "Version-agnostic anchor resource for codelist C199503", "type": "Root Value Domain"}, "self": {"href": "/mdr/ct/packages/sdtmct-2023-06-30/codelists/C199503", "title": "CDISC Clinical Classification Cigarette Evaluation Questionnaire Extended-Screening Test Code Terminology", "type": "Code List"}}, "conceptId": "C199503", "definition": "Modified Cigarette Evaluation Questionnaire-Screening test code.", "extensible": "false", "name": "Modified Cigarette Evaluation Questionnaire-Screening Clinical Classification Test Code", "preferredTerm": "CDISC Clinical Classification Cigarette Evaluation Questionnaire Extended-Screening Test Code Terminology", "submissionValue": "MCEQ01TC", "synonyms": ["Modified Cigarette Evaluation Questionnaire-Screening Clinical Classification Test Code"], "terms": [{"conceptId": "C199552", "definition": "Modified Cigarette Evaluation Questionnaire - Was it satisfying?", "preferredTerm": "CESE-Screening - Was It Satisfying", "submissionValue": "MCEQ0101", "synonyms": ["MCEQ01-Was It Satisfying"]}, {"conceptId": "C199553", "definition": "Modified Cigarette Evaluation Questionnaire - Did it taste good?", "preferredTerm": "CESE-Screening - Did It Taste Good", "submissionValue": "MCEQ0102", "synonyms": ["MCEQ01-Did It Taste Good"]}, {"conceptId": "C199554", "definition": "Modified Cigarette Evaluation Questionnaire - Did it make you dizzy?", "preferredTerm": "CESE-Screening - Did It Make You Dizzy", "submissionValue": "MCEQ0103", "synonyms": ["MCEQ01-Did It Make You Dizzy"]}, {"conceptId": "C199555", "definition": "Modified Cigarette Evaluation Questionnaire - Did it calm you down?", "preferredTerm": "CESE-Screening - Did It Calm You Down", "submissionValue": "MCEQ0104", "synonyms": ["MCEQ01-Did It Calm You Down"]}, {"conceptId": "C199556", "definition": "Modified Cigarette Evaluation Questionnaire - Did it help you concentrate?", "preferredTerm": "CESE-Screening - Did It Help You Concentrate", "submissionValue": "MCEQ0105", "synonyms": ["MCEQ01-Did It Help You Concentrate"]}, {"conceptId": "C199557", "definition": "Modified Cigarette Evaluation Questionnaire - Did it make you feel more awake?", "preferredTerm": "CESE-Screening - Did It Make You Feel More Awake", "submissionValue": "MCEQ0106", "synonyms": ["MCEQ01-Did It Make You Feel More Awake"]}, {"conceptId": "C199558", "definition": "Modified Cigarette Evaluation Questionnaire - Did it reduce your hunger for food?", "preferredTerm": "CESE-Screening - Did It Reduce Your Hunger", "submissionValue": "MCEQ0107", "synonyms": ["MCEQ01-Did It Reduce Your Hunger"]}, {"conceptId": "C199559", "definition": "Modified Cigarette Evaluation Questionnaire - Did it make you nauseated?", "preferredTerm": "CESE-Screening - Did It Make You Nauseated", "submissionValue": "MCEQ0108", "synonyms": ["MCEQ01-Did It Make You Nauseated"]}, {"conceptId": "C199560", "definition": "Modified Cigarette Evaluation Questionnaire - Did it make you feel less irritable?", "preferredTerm": "CESE-Screening - Did It Make You Less Irritable", "submissionValue": "MCEQ0109", "synonyms": ["MCEQ01-Did It Make You Less Irritable"]}, {"conceptId": "C199561", "definition": "Modified Cigarette Evaluation Questionnaire - Did you enjoy the sensations of the smoke in your throat and chest?", "preferredTerm": "CESE-Screening - Did You Enjoy Sensations Throat", "submissionValue": "MCEQ0110", "synonyms": ["MCEQ01-Did You Enjoy Sensations Throat"]}, {"conceptId": "C199562", "definition": "Modified Cigarette Evaluation Questionnaire - Did it immediately reduce your craving for cigarettes?", "preferredTerm": "CESE-Screening - Did It Immediately Reduce Craving", "submissionValue": "MCEQ0111", "synonyms": ["MCEQ01-Did It Immediately Reduce Craving"]}]}