{"_links": {"parentPackage": {"href": "/mdr/ct/packages/sdtmct-2023-06-30", "title": "SDTM Controlled Terminology Package 54 Effective 2023-06-30", "type": "Terminology"}, "priorVersion": {"href": "/mdr/ct/packages/sdtmct-2023-03-31/codelists/C78734", "title": "CDISC SDTM Specimen Type Terminology", "type": "Code List"}, "rootItem": {"href": "/mdr/root/ct/sdtmct/codelists/C78734", "title": "Version-agnostic anchor resource for codelist C78734", "type": "Root Value Domain"}, "self": {"href": "/mdr/ct/packages/sdtmct-2023-06-30/codelists/C78734", "title": "CDISC SDTM Specimen Type Terminology", "type": "Code List"}}, "conceptId": "C78734", "definition": "The name and description of a biological specimen.", "extensible": "true", "name": "Specimen Type", "preferredTerm": "CDISC SDTM Specimen Type Terminology", "submissionValue": "SPECTYPE", "synonyms": ["Specimen Type"], "terms": [{"conceptId": "C150890", "definition": "The fluid that is abnormally collected in localized areas of damaged tissue within the body, usually composed of living and dead white blood cells, bacteria, and dead tissue.", "preferredTerm": "Abscess Fluid", "submissionValue": "ABSCESS FLUID"}, {"conceptId": "C12472", "definition": "Connective tissue consisting primarily of adipocytes (fat cells) and supporting structural matrix.", "preferredTerm": "Adipose Tissue", "submissionValue": "ADIPOSE TISSUE", "synonyms": ["Body Fat", "Fat Tissue"]}, {"conceptId": "C150891", "definition": "The gas from the alveoli of the lungs.", "preferredTerm": "Alveolar Air", "submissionValue": "ALVEOLAR AIR"}, {"conceptId": "C13188", "definition": "The fluid within the amniotic cavity which surrounds and protects the developing embryo. (NCI)", "preferredTerm": "Amniotic Fluid", "submissionValue": "AMNIOTIC FLUID", "synonyms": ["Aqua Amnii"]}, {"conceptId": "C13190", "definition": "The watery fluid which is present in the anterior and posterior chambers of the eye. (NCI)", "preferredTerm": "Aqueous Humor", "submissionValue": "AQUEOUS HUMOR", "synonyms": ["Aqueous Humour"]}, {"conceptId": "C78729", "definition": "Oxygenated blood which is transported with nutrients to body tissues through the arterial system. The exception is blood within the pulmonary artery which carries deoxygenated blood to the lungs. (NCI)", "preferredTerm": "Arterial Blood", "submissionValue": "ARTERIAL BLOOD"}, {"conceptId": "C120838", "definition": "Blood present in the umbilical arteries at the time of delivery.", "preferredTerm": "Arterial Cord Blood", "submissionValue": "ARTERIAL CORD BLOOD"}, {"conceptId": "C199985", "definition": "A plasma sample that is prepared from arterial blood.", "preferredTerm": "Arterial Plasma", "submissionValue": "ARTERIAL PLASMA"}, {"conceptId": "C176369", "definition": "Capillary blood collected from a puncture site that has been warmed or treated with creams containing a hyperemic or vasodilatory agent to increase arterial blood flow.", "preferredTerm": "Arterialized Capillary Blood", "submissionValue": "ARTERIALIZED CAPILLARY BLOOD"}, {"conceptId": "C78739", "definition": "Fatty tissue which is deposited in the inner lining of the arterial wall. (NCI)", "preferredTerm": "Atherosclerotic Plaque", "submissionValue": "ATHEROSCLEROTIC PLAQUE"}, {"conceptId": "C176366", "definition": "A type of tear produced continually to keep the cornea moist; contains salts, water, and mucus.", "preferredTerm": "Basal Tear", "submissionValue": "BASAL TEAR"}, {"conceptId": "C13192", "definition": "Fluid composed of waste products, bile acids, salts, cholesterol, and electrolytes. It is produced by the liver and may be stored in the gallbladder (if present).", "preferredTerm": "Bile", "submissionValue": "BILE"}, {"conceptId": "C12434", "definition": "A liquid tissue with the primary function of transporting oxygen and carbon dioxide. It supplies the tissues with nutrients, removes waste products, and contains various components of the immune system defending the body against infection.", "preferredTerm": "Blood", "submissionValue": "BLOOD", "synonyms": ["Peripheral Blood", "Whole Blood"]}, {"conceptId": "C156591", "definition": "Any cell with a single nucleus found in the bone marrow, for example lymphocytes, monocytes, mesenchymal stem cells and hematopoietic progenitor cells.", "preferredTerm": "Bone Marrow Mononuclear Cell", "submissionValue": "BONE MARROW MONONUCLEAR CELL", "synonyms": ["BMMC"]}, {"conceptId": "C12431", "definition": "The tissue occupying the spaces of some bones. It consists of blood vessel sinuses and a network of hematopoietic cells.", "preferredTerm": "Bone Marrow", "submissionValue": "BONE MARROW"}, {"conceptId": "C159488", "definition": "The solid, spongey portion of bone marrow, consisting of blood vessel sinuses, hematopoietic cells, and trabecular bone.", "preferredTerm": "Bone Marrow Core Biopsy Sample", "submissionValue": "BONE MARROW, CORE"}, {"conceptId": "C133261", "definition": "The liquid portion of bone marrow, consisting of small tissue fragments, hematopoietic cells, and peripheral blood.", "preferredTerm": "Bone Marrow Aspirate", "submissionValue": "BONE MARROW, LIQUID", "synonyms": ["Bone Marrow Aspirate"]}, {"conceptId": "C12366", "definition": "Calcified connective tissue that forms the skeletal components of the body. (NCI)", "preferredTerm": "Bone", "submissionValue": "BONE"}, {"conceptId": "C13257", "definition": "A liquid produced by the mammary gland.", "preferredTerm": "Mammary Gland Milk", "submissionValue": "BREAST MILK"}, {"conceptId": "C84507", "definition": "The middle fraction of an anticoagulated blood specimen following separation by centrifugation. It contains most of the white blood cells and platelets.", "preferredTerm": "Buffy Coat", "submissionValue": "BUFFY COAT"}, {"conceptId": "C35708", "definition": "A concretion of material in the body, usually composed of mineral salts. Representative examples include gallbladder stones, kidney stones, and salivary gland stones.", "preferredTerm": "Stone", "submissionValue": "CALCULUS", "synonyms": ["Calculi"]}, {"conceptId": "C112235", "definition": "A mixture of arterial blood, venous blood and interstitial fluid, which is found in the capillaries.", "preferredTerm": "Capillary Blood", "submissionValue": "CAPILLARY BLOOD"}, {"conceptId": "C132461", "definition": "A plasma sample that is prepared from capillary blood.", "preferredTerm": "Capillary Plasma", "submissionValue": "CAPILLARY PLASMA"}, {"conceptId": "C12371", "definition": "The striated muscle tissue of the heart enveloped by the epicardium and the endocardium. (NCI)", "preferredTerm": "Myocardium", "submissionValue": "CARDIAC MUSCLE TISSUE", "synonyms": ["Myocardium"]}, {"conceptId": "C113745", "definition": "A cell sample that has been compacted by centrifugation.", "preferredTerm": "Cell Pellet", "submissionValue": "CELL PELLET"}, {"conceptId": "C12692", "definition": "The fluid that is contained within the brain ventricles, the subarachnoid space and the central canal of the spinal cord. (NCI)", "preferredTerm": "Cerebrospinal Fluid", "submissionValue": "CEREBROSPINAL FLUID", "synonyms": ["CSF"]}, {"conceptId": "C32293", "definition": "A wax secreted by glands in the ear canal.", "preferredTerm": "Cerumen", "submissionValue": "CERUMEN"}, {"conceptId": "C150892", "definition": "The watery fluid secreted from the glands and associated structures of the cervicovaginal region.", "preferredTerm": "Cervicovaginal Secretion", "submissionValue": "CERVICOVAGINAL SECRETION"}, {"conceptId": "C63797", "definition": "A metastatic cancer cell found in the peripheral blood. (NCI)", "preferredTerm": "Circulating Tumor Cell", "submissionValue": "CIRCULATING TUMOR CELL", "synonyms": ["CTC"]}, {"conceptId": "C32348", "definition": "A thick, protein-rich substance secreted by the breasts during the second half of pregnancy and for a few days after birth before the breast milk comes in.", "preferredTerm": "Human Colostrum", "submissionValue": "COLOSTRUM"}, {"conceptId": "C13300", "definition": "Blood present in the umbilical vessels at the time of delivery.", "preferredTerm": "Umbilical Cord Blood", "submissionValue": "CORD BLOOD", "synonyms": ["Umbilical Cord Blood"]}, {"conceptId": "C189641", "definition": "The fluid (acellular) portion of the circulating blood with retained clotting components from the cord blood of a newborn baby.", "preferredTerm": "Umbilical Cord Plasma", "submissionValue": "CORD PLASMA", "synonyms": ["Umbilical Cord Plasma"]}, {"conceptId": "C119550", "definition": "The clear portion of the blood that remains after the removal of the blood cells and the clotting proteins from the cord blood of a newborn baby.", "preferredTerm": "Umbilical Cord Serum", "submissionValue": "CORD SERUM", "synonyms": ["Umbilical Cord Serum"]}, {"conceptId": "C12701", "definition": "The cells and connective tissue from the inner layer of the two main layers of the skin. The dermis has connective tissue, blood vessels, oil and sweat glands, nerves, hair follicles, and other structures. It is made up of a thin upper layer called the papillary dermis, and a thick lower layer called the reticular dermis.", "preferredTerm": "Dermis", "submissionValue": "DERMAL TISSUE"}, {"conceptId": "C106515", "definition": "The fluid which runs through a dialysis machine and captures, for discard or analysis, the excess water and waste from the blood stream through diffusion and ultrafiltration. (NCI)", "preferredTerm": "Dialysis Fluid", "submissionValue": "DIALYSIS FLUID", "synonyms": ["Dialysate"]}, {"conceptId": "C154852", "definition": "The dialysis fluid which is collected from the peritoneal space and captures, for discard or analysis, the excess water and waste from the blood stream through diffusion and ultrafiltration. (NCI)", "preferredTerm": "Peritoneal Dialysis Fluid", "submissionValue": "DIALYSIS FLUID, PERITONEAL", "synonyms": ["PD Fluid", "Peritoneal Dialysate"]}, {"conceptId": "C142366", "definition": "Normal or abnormal secretions expelled from a body location.", "preferredTerm": "Discharge Body Fluid", "submissionValue": "DISCHARGE"}, {"conceptId": "C198365", "definition": "Endogenously generated droplets present in exhaled air, containing water and non-volatile material, which originate from the surfactant and respiratory tract lining fluid from the most distal airways.", "preferredTerm": "Distal Respiratory Exhaled Particles", "submissionValue": "DISTAL RESPIRATORY EXHALED PARTICLES"}, {"conceptId": "C77666", "definition": "Partially digested gastric contents that are returned to the mouth or beyond via the vomit reflex present in some species.", "preferredTerm": "Vomitus", "submissionValue": "EMESIS", "synonyms": ["Emesis", "Vomitus"]}, {"conceptId": "C176368", "definition": "A type of tear produced in response to negative or positive emotions; contains higher amounts of proteins and stress-related hormones in comparison to other tear types.", "preferredTerm": "Emotional Tear", "submissionValue": "EMOTIONAL TEAR", "synonyms": ["Psychic Tear"]}, {"conceptId": "C176371", "definition": "A specimen that consists of the cells and connective tissue of the endometrium.", "preferredTerm": "Endometrial Tissue", "submissionValue": "ENDOMETRIAL TISSUE"}, {"conceptId": "C171504", "definition": "The fluid collected from the lumen of the trachea.", "preferredTerm": "Endotracheal Fluid", "submissionValue": "ENDOTRACHEAL FLUID", "synonyms": ["Endotracheal Aspirate Fluid", "ETA Fluid", "Tracheal Aspirate", "Tracheal Aspirate Fluid"]}, {"conceptId": "C12708", "definition": "The cells and connective tissue from the epithelial portion of the skin (cutis). It consists of the following layers: stratum corneum (horny layer), stratum granulosum (granular layer), stratum spinosum (prickle cell layer), and stratum basale (basal cell layer).", "preferredTerm": "Epidermis", "submissionValue": "EPIDERMAL TISSUE"}, {"conceptId": "C12578", "definition": "Any of the cells of the epithelium, which covers the body and lines its cavities and glands.", "preferredTerm": "Epithelial Cell", "submissionValue": "EPITHELIAL CELL"}, {"conceptId": "C12521", "definition": "Cell specialized for oxygen transport, having a high concentration of hemoglobin in the cytoplasm and little else; biconcave, anucleate discs, 7nm diameter in mammals.", "preferredTerm": "Erythrocyte", "submissionValue": "ERYTHROCYTES", "synonyms": ["RBC", "Red Blood Cells"]}, {"conceptId": "C126053", "definition": "Expired air that has been condensed.", "preferredTerm": "Exhaled Breath Condensate", "submissionValue": "EXHALED BREATH CONDENSATE"}, {"conceptId": "C78741", "definition": "The air that moves out of the chest during expiration. It contains a higher percentage of carbon dioxide and a lower percentage of oxygen compared to the inhaled air. (NCI)", "preferredTerm": "Expired Air", "submissionValue": "EXPIRED AIR", "synonyms": ["Exhaled Breath", "Expired Breath"]}, {"conceptId": "C13233", "definition": "Accumulation of extravasated fluid containing inflammatory cells and fibrin. Necrotic debris and/or other cellular and extracellular components may also be present.", "preferredTerm": "Exudate", "submissionValue": "EXUDATE"}, {"conceptId": "C12482", "definition": "A connective tissue cell that secretes collagen, a component of the extracellular matrix.", "preferredTerm": "Fibroblast", "submissionValue": "FIBROBLAST"}, {"conceptId": "C13236", "definition": "Liquid substances produced by the body.", "preferredTerm": "Body Fluid or Substance", "submissionValue": "FLUID"}, {"conceptId": "C77614", "definition": "The contents of the stomach that may include undigested food mixed with juices secreted by the gastric mucosal glands. (NCI)", "preferredTerm": "Gastric Content", "submissionValue": "GASTRIC CONTENTS", "synonyms": ["Stomach Contents"]}, {"conceptId": "C86998", "definition": "The fluid produced by the stomach glands, composed of gastric acids and enzymes. (NCI)", "preferredTerm": "Gastric Fluid", "submissionValue": "GASTRIC FLUID"}, {"conceptId": "C12530", "definition": "A type of leukocyte containing a nucleus and cytoplasmic granules. Granulocytes are subdivided according to the staining properties of their granules into eosinophils, basophils, and neutrophils.", "preferredTerm": "Granulocyte", "submissionValue": "GRANULOCYTE"}, {"conceptId": "C13317", "definition": "A tube-like invagination of the epidermis from which the hair shaft develops and into which the sebaceous glands open; the follicle is lined by a cellular inner and outer root sheath of epidermal origin and is invested with a fibrous sheath derived from the dermis. (NCI)", "preferredTerm": "Hair Follicle", "submissionValue": "HAIR FOLLICLE"}, {"conceptId": "C32705", "definition": "The filamentous outgrowth of the epidermis. (NCI)", "preferredTerm": "Hair", "submissionValue": "HAIR", "synonyms": ["Hair"]}, {"conceptId": "C106554", "definition": "The liquid, solid or semi-solid lying below a liquid residue, which is separated by crystallization, precipitation or centrifugation of a plasma sample. (NCI)", "preferredTerm": "Plasma Infranatant", "submissionValue": "INFRANATANT, PLASMA"}, {"conceptId": "C106558", "definition": "The liquid, solid or semi-solid lying below a liquid residue, which is separated by crystallization, precipitation or centrifugation of a pleural fluid sample. (NCI)", "preferredTerm": "Pleural Fluid Infranatant", "submissionValue": "INFRANATANT, PLEURAL FLUID"}, {"conceptId": "C106565", "definition": "The liquid, solid or semi-solid lying below a liquid residue, which is separated by crystallization, precipitation or centrifugation of a serum sample. (NCI)", "preferredTerm": "Serum Infranatant", "submissionValue": "INFRANATANT, SERUM"}, {"conceptId": "C120839", "definition": "The extracellular fluid component found in the spaces between tissues. This excludes plasma and transcellular fluid.", "preferredTerm": "Interstitial Fluid", "submissionValue": "INTERSTITIAL FLUID"}, {"conceptId": "C53471", "definition": "A specific individual microbe and its genetically identical progeny separated on a single occasion from a sample taken from a host or culture system.", "preferredTerm": "Isolate", "submissionValue": "ISOLATE", "synonyms": ["Microbial Isolate"]}, {"conceptId": "C12589", "definition": "The keratin-producing cell of the epidermis that forms in the deep basal layer of the stratified epithelium.", "preferredTerm": "Keratinocyte", "submissionValue": "KERATINOCYTE"}, {"conceptId": "C103411", "definition": "Fluid introduced and collected from a body cavity or location by lavage or wash procedure.", "preferredTerm": "Lavage Fluid", "submissionValue": "LAVAGE FLUID", "synonyms": ["Wash Fluid"]}, {"conceptId": "C12529", "definition": "Blood cells that are devoid of hemoglobin, capable of amoeboid motion and phagocytosis, and act as the principal components of the immune system.", "preferredTerm": "Leukocyte", "submissionValue": "LEUKOCYTE"}, {"conceptId": "C78742", "definition": "Vaginal discharge occurring during the post-partum period. It consists of a mixture of blood, mucus, and placental remnants. (NCI)", "preferredTerm": "Lochia", "submissionValue": "LOCHIA"}, {"conceptId": "C13273", "definition": "Pulmonary surfactant lines the lung epithelium and lowers surface tension to prevent collapse at end-expiration. Deficiency of pulmonary surfactant results in respiratory distress syndrome (RDS) in premature infants. Lung surfactant is synthesized in alveolar type II cells, stored in lamellar bodies and secreted via exocytosis. (NCI)", "preferredTerm": "Lung Surfactant", "submissionValue": "LUNG SURFACTANT"}, {"conceptId": "C13252", "definition": "A clear, transparent, sometimes faintly yellow and slightly opalescent fluid that is collected from the tissues throughout the body, flows in the lymphatic vessels (through the lymph nodes), and is eventually added to the venous blood circulation. Lymph consists of a clear liquid portion, varying numbers of white blood cells (chiefly lymphocytes), and a few red blood cells. (NCI)", "preferredTerm": "Lymph", "submissionValue": "LYMPH"}, {"conceptId": "C12535", "definition": "White blood cells formed in the body's lymphoid tissue. The nucleus is round or ovoid with coarse, irregularly clumped chromatin while the cytoplasm is typically pale blue with azurophilic (if any) granules.", "preferredTerm": "Lymphocyte", "submissionValue": "LYMPHOCYTE"}, {"conceptId": "C62004", "definition": "The cellular debris and fluid produced by lysis of cells.", "preferredTerm": "Lysate", "submissionValue": "LYSATE"}, {"conceptId": "C78743", "definition": "The newborn's first intestinal discharge. It is a dark-green, thick substance composed of mucus, intestinal secretions, hair, and intestinal mucosa cells. (NCI)", "preferredTerm": "Meconium", "submissionValue": "MECONIUM"}, {"conceptId": "C78740", "definition": "The discharged blood from the uterus during the reproductive years. The discharge occurs approximately once a month. (NCI)", "preferredTerm": "Menstrual Blood", "submissionValue": "MENSTRUAL BLOOD"}, {"conceptId": "C158281", "definition": "The de-oxygenated blood flowing into the right side of the heart, composed of a mixture of venous blood from the entirety of the systemic circulation.", "preferredTerm": "Mixed Venous Blood", "submissionValue": "MIXED VENOUS BLOOD"}, {"conceptId": "C12547", "definition": "A large, phagocytic mononuclear leukocyte produced in the vertebrate bone marrow and released into the blood; containing a large, oval or somewhat indented nucleus surrounded by voluminous cytoplasm and numerous organelles.", "preferredTerm": "Monocyte", "submissionValue": "MONOCYTE"}, {"conceptId": "C13259", "definition": "The thick fluid secreted by the mucus glands in the aerodigestive tract and the vagina. (NCI)", "preferredTerm": "Mucus", "submissionValue": "MUCUS"}, {"conceptId": "C12435", "definition": "Tissue responsible for body and internal organ movement. Muscle tissue is composed of specialized contractile cells.", "preferredTerm": "Muscle Tissue", "submissionValue": "MUSCLE TISSUE"}, {"conceptId": "C33156", "definition": "The cutaneous plate on the dorsal surface of the distal end of a finger or toe. (NCI)", "preferredTerm": "Nail", "submissionValue": "NAIL", "synonyms": ["Nail"]}, {"conceptId": "C12536", "definition": "Cells resembling large granular lymphocytes that do not express markers of either T or B cell lineage. These cells express Fc receptors for IgG and can kill target cells using antibody-dependent cell-mediated cytotoxicity. They can also use perforin to kill cells in the absence of antibody, and may occur without previous sensitization.", "preferredTerm": "Natural Killer Cell", "submissionValue": "NATURAL KILLER CELL"}, {"conceptId": "C12954", "definition": "A peripheral blood cell with a single nucleus, for example lymphocytes and monocytes.", "preferredTerm": "Peripheral Blood Mononuclear Cell", "submissionValue": "PERIPHERAL BLOOD MONONUCLEAR CELL", "synonyms": ["PBMC"]}, {"conceptId": "C77612", "definition": "The fluid within the peritoneal cavity.", "preferredTerm": "Peritoneal Fluid", "submissionValue": "PERITONEAL FLUID"}, {"conceptId": "C13280", "definition": "The liquid secreted by the sweat glands. (NCI)", "preferredTerm": "Sweat", "submissionValue": "PERSPIRATION", "synonyms": ["Sweat"]}, {"conceptId": "C176370", "definition": "The fluid that is produced from the movement of whole blood across a semipermeable membrane in response to a pressure gradient, removing blood cells and large proteins.", "preferredTerm": "Plasma Ultrafiltrate", "submissionValue": "PLASMA ULTRAFILTRATE"}, {"conceptId": "C13356", "definition": "The fluid (acellular) portion of the circulating blood with retained clotting components.", "preferredTerm": "Plasma", "submissionValue": "PLASMA"}, {"conceptId": "C106556", "definition": "A plasma sample that is prepared from whole blood, which has undergone a number of centrifugation steps to decrease the amount of platelets. (NCI)", "preferredTerm": "Platelet-poor Plasma", "submissionValue": "PLATELET POOR PLASMA", "synonyms": ["PPP"]}, {"conceptId": "C106557", "definition": "A plasma sample that is prepared from whole blood, which has undergone a number of centrifugation steps to concentrate the amount of platelets. (NCI)", "preferredTerm": "Platelet-rich Plasma", "submissionValue": "PLATELET RICH PLASMA", "synonyms": ["PRP"]}, {"conceptId": "C12520", "definition": "An irregular, disc-shaped structure in the blood that assists in blood clotting. Platelets are not blood cells, they are fragments of large bone marrow cells called megakaryocytes. (NCI)", "preferredTerm": "Platelet", "submissionValue": "PLATELET", "synonyms": ["Thrombocyte"]}, {"conceptId": "C77613", "definition": "The fluid within the pleural cavity.", "preferredTerm": "Pleural Fluid", "submissionValue": "PLEURAL FLUID"}, {"conceptId": "C12469", "definition": "The serous membrane that lines the wall of the thoracic cavity and the surface of the lungs.", "preferredTerm": "Pleura", "submissionValue": "PLEURAL TISSUE"}, {"conceptId": "C100896", "definition": "A slightly alkaline, white fluid secreted from the prostate and is a constituent of semen.", "preferredTerm": "Prostatic Fluid", "submissionValue": "PROSTATIC FLUID"}, {"conceptId": "C50718", "definition": "A yellowish substance produced during bacterial inflammation. It contains necrotic cells and cells fighting the infection. (NCI)", "preferredTerm": "Pus", "submissionValue": "PUS"}, {"conceptId": "C176367", "definition": "A type of tear produced in response to irritation from foreign particles, vapors, bright lights, or peppery substances; contains higher amounts of antibodies in comparison to other tear types.", "preferredTerm": "Reflex Tear", "submissionValue": "REFLEX TEAR"}, {"conceptId": "C12528", "definition": "Immature erythrocytes that have just undergone extrusion of their cell nucleus. They still contain some organelles that gradually decrease in number as the cells mature.", "preferredTerm": "Reticulocyte", "submissionValue": "RETICULOCYTES"}, {"conceptId": "C13275", "definition": "A clear liquid secreted by the salivary glands.", "preferredTerm": "Saliva", "submissionValue": "SALIVA"}, {"conceptId": "C13276", "definition": "A thick, oily substance produced by the sebaceous glands located in the dermis. (NCI)", "preferredTerm": "Sebum", "submissionValue": "SEBUM"}, {"conceptId": "C13277", "definition": "The fluid containing the spermatozoa, secreted by the testes and accessory reproductive glands of the male.", "preferredTerm": "Semen", "submissionValue": "SEMEN"}, {"conceptId": "C33529", "definition": "Part of the ejaculated fluid. It contains secretions from the seminal vesicles, Cowper gland, and prostate gland.", "preferredTerm": "Seminal Fluid", "submissionValue": "SEMINAL FLUID"}, {"conceptId": "C170628", "definition": "A specimen type consisting of serum or plasma or blood.", "preferredTerm": "Serum or Plasma or Blood", "submissionValue": "SERUM OR PLASMA OR BLOOD", "synonyms": ["Ser/Plas/Bld"]}, {"conceptId": "C105706", "definition": "The non-cellular portion of the circulating blood, with or without the clotting proteins present.", "preferredTerm": "Serum or Plasma", "submissionValue": "SERUM OR PLASMA", "synonyms": ["Ser/Plas"]}, {"conceptId": "C13325", "definition": "The clear portion of the blood that remains after the removal of the blood cells and the clotting proteins. (NCI)", "preferredTerm": "Serum", "submissionValue": "SERUM", "synonyms": ["Sera"]}, {"conceptId": "C13050", "definition": "Voluntary, striated muscle tissue predominantly associated with the skeleton.", "preferredTerm": "Skeletal Muscle Tissue", "submissionValue": "SKELETAL MUSCLE TISSUE"}, {"conceptId": "C33563", "definition": "Tissue composed of three layers, epidermis, dermis and subcutis which protect underlying muscles and organs.", "preferredTerm": "Skin Tissue", "submissionValue": "SKIN TISSUE"}, {"conceptId": "C33574", "definition": "A white secretion of the sebaceous glands of the foreskin. (NCI)", "preferredTerm": "Smegma", "submissionValue": "SMEGMA"}, {"conceptId": "C12437", "definition": "Primarily involuntary, non-striated muscle tissue of the internal organs and blood vessels.", "preferredTerm": "Smooth Muscle Tissue", "submissionValue": "SMOOTH MUSCLE TISSUE"}, {"conceptId": "C12471", "definition": "Refers to muscle, fat, fibrous tissue, blood vessels, organ parenchyma, or other supporting tissue of the body.", "preferredTerm": "Soft Tissue", "submissionValue": "SOFT TISSUE", "synonyms": ["Soft Tissue"]}, {"conceptId": "C12602", "definition": "The male reproductive cell that is formed in the testicle. A sperm consists of a head, a body, and a tail that provides propulsion.", "preferredTerm": "Spermatozoon", "submissionValue": "SPERMATOZOON", "synonyms": ["Sperm Cell"]}, {"conceptId": "C13278", "definition": "Material containing mucus, cellular debris, microorganisms and sometimes blood or pus. It is ejected through the mouth from the lungs, bronchi, and trachea. (NCI)", "preferredTerm": "Sputum", "submissionValue": "SPUTUM"}, {"conceptId": "C13234", "definition": "The material discharged from the bowel during defecation. It consists of undigested food, intestinal mucus, epithelial cells, and bacteria. (NCI)", "preferredTerm": "Feces", "submissionValue": "STOOL", "synonyms": ["Feces"]}, {"conceptId": "C12436", "definition": "Striated muscles are appendicular and axial muscles typically connected at either or both ends to the bony skeleton of the body. Striated muscle fibers contain a highly organized, contractile cytoskeletal apparatus with a striated microscopic appearance; muscle contraction is typically under voluntary control. (NCI)", "preferredTerm": "Striated Muscle Tissue", "submissionValue": "STRIATED MUSCLE TISSUE"}, {"conceptId": "C150894", "definition": "The liquid lying above a liquid, solid or semi-solid residue, which is separated by crystallization, precipitation or centrifugation of a cerebrospinal fluid sample. (NCI)", "preferredTerm": "Cerebrospinal Fluid Supernatant", "submissionValue": "SUPERNATANT, CEREBROSPINAL FLUID"}, {"conceptId": "C189640", "definition": "The liquid lying above a liquid, solid or semi-solid residue, which is separated by crystallization, precipitation or centrifugation of a lavage fluid sample.", "preferredTerm": "Lavage Fluid Supernatant", "submissionValue": "SUPERNATANT, LAVAGE FLUID"}, {"conceptId": "C106555", "definition": "The liquid lying above a liquid, solid or semi-solid residue, which is separated by crystallization, precipitation or centrifugation of a plasma sample. (NCI)", "preferredTerm": "Plasma Supernatant", "submissionValue": "SUPERNATANT, PLASMA"}, {"conceptId": "C106559", "definition": "The liquid lying above a liquid, solid or semi-solid residue, which is separated by crystallization, precipitation or centrifugation of a pleural fluid sample. (NCI)", "preferredTerm": "Pleural Fluid Supernatant", "submissionValue": "SUPERNATANT, PLEURAL FLUID"}, {"conceptId": "C150893", "definition": "The liquid lying above a liquid, solid or semi-solid residue, which is separated by crystallization, precipitation or centrifugation of a serum or plasma sample. (NCI)", "preferredTerm": "Serum or Plasma Supernatant", "submissionValue": "SUPERNATANT, SERUM OR PLASMA"}, {"conceptId": "C106566", "definition": "The liquid lying above a liquid, solid or semi-solid residue, which is separated by crystallization, precipitation or centrifugation of a serum sample. (NCI)", "preferredTerm": "Serum Supernatant", "submissionValue": "SUPERNATANT, SERUM"}, {"conceptId": "C150895", "definition": "A heterogeneous and variable aggregate of body fluids, tissues, cells, microorganisms, and other materials that are collected from a swab biospecimen collection procedure.", "preferredTerm": "Swabbed Material", "submissionValue": "SWABBED MATERIAL"}, {"conceptId": "C33718", "definition": "The fluid within a joint capsule.", "preferredTerm": "Synovial Fluid", "submissionValue": "SYNOVIAL FLUID", "synonyms": ["Synovia"]}, {"conceptId": "C33739", "definition": "The fluid secreted by the lacrimal apparatus.", "preferredTerm": "Tear", "submissionValue": "TEAR"}, {"conceptId": "C12801", "definition": "An anatomical structure consisting of similarly specialized cells and intercellular matrix, aggregated according to genetically determined spatial relationships, performing a specific function. (NCI)", "preferredTerm": "Tissue", "submissionValue": "TISSUE"}, {"conceptId": "C78744", "definition": "The fluid that passes through the wall of the veins and capillaries to the surrounding tissues because of increased intravascular pressure. It has low protein content. (NCI)", "preferredTerm": "Transudate", "submissionValue": "TRANSUDATE"}, {"conceptId": "C18009", "definition": "A tumor sample, or entire tumor that is removed for examination.", "preferredTerm": "Tumor Tissue", "submissionValue": "TUMOR TISSUE"}, {"conceptId": "C158282", "definition": "Material separated from urine.", "preferredTerm": "Urine Sediment", "submissionValue": "URINE SEDIMENT"}, {"conceptId": "C13283", "definition": "The fluid produced by the kidneys.", "preferredTerm": "Urine", "submissionValue": "URINE"}, {"conceptId": "C78730", "definition": "Deoxygenated blood containing urea and other waste products which is transported through the venous system to the heart and lungs. The exception is blood within the pulmonary vein which is oxygenated and travels from the lungs to the left atrium of the heart. (NCI)", "preferredTerm": "Venous Blood", "submissionValue": "VENOUS BLOOD"}, {"conceptId": "C120840", "definition": "Blood present in the umbilical vein at the time of delivery.", "preferredTerm": "Venous Cord Blood", "submissionValue": "VENOUS CORD BLOOD"}, {"conceptId": "C132462", "definition": "A plasma sample that is prepared from venous blood.", "preferredTerm": "Venous Plasma", "submissionValue": "VENOUS PLASMA"}, {"conceptId": "C13323", "definition": "The clear colorless transparent jelly that fills the posterior chamber of the eyeball. (NCI)", "preferredTerm": "Vitreous Humor", "submissionValue": "VITREOUS HUMOR"}, {"conceptId": "C33892", "definition": "The nerve tissue forming the bulk of the deep parts of the brain and the superficial parts of the spinal cord. It is composed of nerve cell processes, i.e. extensions (axons), which connect various gray matter areas of the brain to each other and carry nerve impulses to and from the nerve cell bodies within the central nervous system (neurons). (NCI)", "preferredTerm": "White Matter", "submissionValue": "WHITE MATTER TISSUE"}]}