{"_links": {"parentPackage": {"href": "/mdr/ct/packages/sdtmct-2023-06-30", "title": "SDTM Controlled Terminology Package 54 Effective 2023-06-30", "type": "Terminology"}, "priorVersion": {"href": "/mdr/ct/packages/sdtmct-2023-03-31/codelists/C96777", "title": "CDISC SDTM Medical Evaluator Identifier Terminology", "type": "Code List"}, "rootItem": {"href": "/mdr/root/ct/sdtmct/codelists/C96777", "title": "Version-agnostic anchor resource for codelist C96777", "type": "Root Value Domain"}, "self": {"href": "/mdr/ct/packages/sdtmct-2023-06-30/codelists/C96777", "title": "CDISC SDTM Medical Evaluator Identifier Terminology", "type": "Code List"}}, "conceptId": "C96777", "definition": "A terminology codelist containing identifiers used to uniquely distinguish multiple evaluators with the same role.", "extensible": "true", "name": "Medical Evaluator Identifier", "preferredTerm": "CDISC SDTM Medical Evaluator Identifier Terminology", "submissionValue": "MEDEVAL", "synonyms": ["Medical Evaluator Identifier"], "terms": [{"conceptId": "C150867", "definition": "An adjudicator performing the assessment who is given the designation of one.", "preferredTerm": "Adjudicator 1", "submissionValue": "ADJUDICATOR 1"}, {"conceptId": "C150868", "definition": "An adjudicator performing the assessment who is given the designation of two.", "preferredTerm": "Adjudicator 2", "submissionValue": "ADJUDICATOR 2"}, {"conceptId": "C150869", "definition": "An adjudicator performing the assessment who is given the designation of three.", "preferredTerm": "Adjudicator 3", "submissionValue": "ADJUDICATOR 3"}, {"conceptId": "C187876", "definition": "A cardiologist performing the assessment who is given the designation of one.", "preferredTerm": "Cardiologist 1", "submissionValue": "CARDIOLOGIST 1"}, {"conceptId": "C189588", "definition": "A cardiologist performing the assessment who is given the designation of two.", "preferredTerm": "Cardiologist 2", "submissionValue": "CARDIOLOGIST 2"}, {"conceptId": "C189587", "definition": "A certified assessor performing the assessment who is given the designation of one.", "preferredTerm": "Certified Assessor 1", "submissionValue": "CERTIFIED ASSESSOR 1"}, {"conceptId": "C187877", "definition": "A clinical pathologist performing the assessment who is given the designation of one.", "preferredTerm": "Clinical Pathologist 1", "submissionValue": "CLINICAL PATHOLOGIST 1"}, {"conceptId": "C189589", "definition": "A clinical pathologist performing the assessment who is given the designation of two.", "preferredTerm": "Clinical Pathologist 2", "submissionValue": "CLINICAL PATHOLOGIST 2"}, {"conceptId": "C187878", "definition": "A dermatologist performing the assessment who is given the designation of one.", "preferredTerm": "Dermatologist 1", "submissionValue": "DERMATOLOGIST 1"}, {"conceptId": "C189590", "definition": "A dermatologist performing the assessment who is given the designation of two.", "preferredTerm": "Dermatologist 2", "submissionValue": "DERMATOLOGIST 2"}, {"conceptId": "C187879", "definition": "A developmental behavioral pediatrician performing the assessment who is given the designation of one.", "preferredTerm": "Developmental Behavioral Pediatrician 1", "submissionValue": "DEVELOPMENTAL BEHAVIORAL PEDIATRICIAN 1"}, {"conceptId": "C189591", "definition": "A developmental behavioral pediatrician performing the assessment who is given the designation of two.", "preferredTerm": "Developmental Behavioral Pediatrician 2", "submissionValue": "DEVELOPMENTAL BEHAVIORAL PEDIATRICIAN 2"}, {"conceptId": "C187880", "definition": "A developmental psychologist performing the assessment who is given the designation of one.", "preferredTerm": "Developmental Psychologist 1", "submissionValue": "DEVELOPMENTAL PSYCHOLOGIST 1"}, {"conceptId": "C189592", "definition": "A developmental psychologist performing the assessment who is given the designation of two.", "preferredTerm": "Developmental Psychologist 2", "submissionValue": "DEVELOPMENTAL PSYCHOLOGIST 2"}, {"conceptId": "C187881", "definition": "An endocrinologist performing the assessment who is given the designation of one.", "preferredTerm": "Endocrinologist 1", "submissionValue": "ENDOCRINOLOGIST 1"}, {"conceptId": "C189593", "definition": "An endocrinologist performing the assessment who is given the designation of two.", "preferredTerm": "Endocrinologist 2", "submissionValue": "ENDOCRINOLOGIST 2"}, {"conceptId": "C187882", "definition": "A forensic pathologist performing the assessment who is given the designation of one.", "preferredTerm": "Forensic Pathologist 1", "submissionValue": "FORENSIC PATHOLOGIST 1"}, {"conceptId": "C189594", "definition": "A forensic pathologist performing the assessment who is given the designation of two.", "preferredTerm": "Forensic Pathologist 2", "submissionValue": "FORENSIC PATHOLOGIST 2"}, {"conceptId": "C187883", "definition": "A hematologist performing the assessment who is given the designation of one.", "preferredTerm": "Hematologist 1", "submissionValue": "HEMATOLOGIST 1"}, {"conceptId": "C189595", "definition": "A hematologist performing the assessment who is given the designation of two.", "preferredTerm": "Hematologist 2", "submissionValue": "HEMATOLOGIST 2"}, {"conceptId": "C187884", "definition": "An internist performing the assessment who is given the designation of one.", "preferredTerm": "Internist 1", "submissionValue": "INTERNIST 1"}, {"conceptId": "C189596", "definition": "An internist performing the assessment who is given the designation of two.", "preferredTerm": "Internist 2", "submissionValue": "INTERNIST 2"}, {"conceptId": "C132421", "definition": "A microscopist performing the assessment who is given the designation of one.", "preferredTerm": "Microscopist 1", "submissionValue": "MICROSCOPIST 1"}, {"conceptId": "C132422", "definition": "A microscopist performing the assessment who is given the designation of two.", "preferredTerm": "Microscopist 2", "submissionValue": "MICROSCOPIST 2"}, {"conceptId": "C132423", "definition": "A microscopist performing the assessment who is given the designation of three.", "preferredTerm": "Microscopist 3", "submissionValue": "MICROSCOPIST 3"}, {"conceptId": "C96692", "definition": "A neurologist performing the assessment who is given the designation of one.", "preferredTerm": "Neurologist 1", "submissionValue": "NEUROLOGIST 1"}, {"conceptId": "C96606", "definition": "A neurologist performing the assessment who is given the designation of two.", "preferredTerm": "Neurologist 2", "submissionValue": "NEUROLOGIST 2"}, {"conceptId": "C189584", "definition": "A neurooncologist performing the assessment who is given the designation of one.", "preferredTerm": "Neuro-oncologist 1", "submissionValue": "NEUROONCOLOGIST 1"}, {"conceptId": "C184676", "definition": "A neuroradiologist performing the assessment who is given the designation of one.", "preferredTerm": "Neuroradiologist 1", "submissionValue": "NEURORADIOLOGIST 1"}, {"conceptId": "C184677", "definition": "A neuroradiologist performing the assessment who is given the designation of two.", "preferredTerm": "Neuroradiologist 2", "submissionValue": "NEURORADIOLOGIST 2"}, {"conceptId": "C189585", "definition": "A nuclear medicine physician performing the assessment who is given the designation of one.", "preferredTerm": "Nuclear Medicine Physician 1", "submissionValue": "NUCLEAR MEDICINE PHYSICIAN 1"}, {"conceptId": "C96611", "definition": "An oncologist performing the assessment who is given the designation of one.", "preferredTerm": "Oncologist 1", "submissionValue": "ONCOLOGIST 1"}, {"conceptId": "C96612", "definition": "An oncologist performing the assessment who is given the designation of two.", "preferredTerm": "Oncologist 2", "submissionValue": "ONCOLOGIST 2"}, {"conceptId": "C187885", "definition": "An ophthalmologist performing the assessment who is given the designation of one.", "preferredTerm": "Ophthalmologist 1", "submissionValue": "OPHTHALMOLOGIST 1"}, {"conceptId": "C189597", "definition": "An ophthalmologist performing the assessment who is given the designation of two.", "preferredTerm": "Ophthalmologist 2", "submissionValue": "OPHTHALMOLOGIST 2"}, {"conceptId": "C187886", "definition": "An optometrist performing the assessment who is given the designation of one.", "preferredTerm": "Optometrist 1", "submissionValue": "OPTOMETRIST 1"}, {"conceptId": "C189598", "definition": "An optometrist performing the assessment who is given the designation of two.", "preferredTerm": "Optometrist 2", "submissionValue": "OPTOMETRIST 2"}, {"conceptId": "C187887", "definition": "A otolaryngologist performing the assessment who is given the designation of one.", "preferredTerm": "Otolaryngologist 1", "submissionValue": "OTOLARYNGOLOGIST 1"}, {"conceptId": "C189599", "definition": "A otolaryngologist performing the assessment who is given the designation of two.", "preferredTerm": "Otolaryngologist 2", "submissionValue": "OTOLARYNGOLOGIST 2"}, {"conceptId": "C154836", "definition": "A pathologist performing the assessment who is given the designation of one.", "preferredTerm": "Pathologist 1", "submissionValue": "PATHOLOGIST 1"}, {"conceptId": "C154837", "definition": "A pathologist performing the assessment who is given the designation of two.", "preferredTerm": "Pathologist 2", "submissionValue": "PATHOLOGIST 2"}, {"conceptId": "C187888", "definition": "A pediatric neurologist performing the assessment who is given the designation of one.", "preferredTerm": "Pediatric Neurologist 1", "submissionValue": "PEDIATRIC NEUROLOGIST 1"}, {"conceptId": "C189600", "definition": "A pediatric neurologist performing the assessment who is given the designation of two.", "preferredTerm": "Pediatric Neurologist 2", "submissionValue": "PEDIATRIC NEUROLOGIST 2"}, {"conceptId": "C189586", "definition": "A pharmacokineticist performing the assessment who is given the designation of one.", "preferredTerm": "Pharmacokineticist 1", "submissionValue": "PHARMACOKINETICIST 1"}, {"conceptId": "C187889", "definition": "A physiotherapist performing the assessment who is given the designation of one.", "preferredTerm": "Physiotherapist 1", "submissionValue": "PHYSIOTHERAPIST 1"}, {"conceptId": "C189601", "definition": "A physiotherapist performing the assessment who is given the designation of two.", "preferredTerm": "Physiotherapist 2", "submissionValue": "PHYSIOTHERAPIST 2"}, {"conceptId": "C94530", "definition": "A radiologist performing the assessment who is given the designation of one.", "preferredTerm": "Radiologist 1", "submissionValue": "RADIOLOGIST 1"}, {"conceptId": "C94531", "definition": "A radiologist performing the assessment who is given the designation of two.", "preferredTerm": "Radiologist 2", "submissionValue": "RADIOLOGIST 2"}, {"conceptId": "C187890", "definition": "A radiologist performing the assessment who is given the designation of three.", "preferredTerm": "Radiologist 3", "submissionValue": "RADIOLOGIST 3"}, {"conceptId": "C132425", "definition": "A rater performing the assessment who is given the designation of one.", "preferredTerm": "Rater 1", "submissionValue": "RATER 1"}, {"conceptId": "C132426", "definition": "A rater performing the assessment who is given the designation of two.", "preferredTerm": "Rater 2", "submissionValue": "RATER 2"}, {"conceptId": "C94532", "definition": "A reader performing the assessment who is given the designation of one.", "preferredTerm": "Reader 1", "submissionValue": "READER 1"}, {"conceptId": "C94533", "definition": "A reader performing the assessment who is given the designation of two.", "preferredTerm": "Reader 2", "submissionValue": "READER 2"}, {"conceptId": "C139209", "definition": "A reader performing the assessment who is given the designation of three.", "preferredTerm": "Reader 3", "submissionValue": "READER 3"}, {"conceptId": "C187891", "definition": "An urologist performing the assessment who is given the designation of one.", "preferredTerm": "Urologist 1", "submissionValue": "UROLOGIST 1"}, {"conceptId": "C189602", "definition": "An urologist performing the assessment who is given the designation of two.", "preferredTerm": "Urologist 2", "submissionValue": "UROLOGIST 2"}]}