{"_links": {"parentPackage": {"href": "/mdr/ct/packages/define-xmlct-2022-12-16", "title": "Define-XML Controlled Terminology Package 52 Effective 2022-12-16", "type": "Terminology"}, "priorVersion": {"href": "/mdr/ct/packages/define-xmlct-2022-09-30/codelists/C170448", "title": "CDISC Define-XML ODM Context Terminology", "type": "Code List"}, "rootItem": {"href": "/mdr/root/ct/define-xmlct/codelists/C170448", "title": "Version-agnostic anchor resource for codelist C170448", "type": "Root Value Domain"}, "self": {"href": "/mdr/ct/packages/define-xmlct-2022-12-16/codelists/C170448", "title": "CDISC Define-XML ODM Context Terminology", "type": "Code List"}}, "conceptId": "C170448", "definition": "Terminology relevant to the context in which the Define-XML document is used.", "extensible": "false", "name": "ODM Context", "preferredTerm": "CDISC Define-XML ODM Context Terminology", "submissionValue": "ODMCNTX", "synonyms": ["ODM Context"], "terms": [{"conceptId": "C17649", "definition": "Different than the one(s) previously specified or mentioned. (NCI)", "preferredTerm": "Other", "submissionValue": "Other", "synonyms": ["Other"]}, {"conceptId": "C70885", "definition": "An assembly of one or more regulatory submission units supporting a specific regulatory purpose or decision. In most cases, the compilation of the submission units is utilized in the assessment of a regulated medical product quality, safety and/or effectiveness.", "preferredTerm": "Regulatory Submission", "submissionValue": "Submission"}]}