{"_links": {"parentPackage": {"href": "/mdr/ct/packages/define-xmlct-2022-12-16", "title": "Define-XML Controlled Terminology Package 52 Effective 2022-12-16", "type": "Terminology"}, "priorVersion": {"href": "/mdr/ct/packages/define-xmlct-2022-09-30/codelists/C170452", "title": "CDISC Define-XML Standard Name Terminology", "type": "Code List"}, "rootItem": {"href": "/mdr/root/ct/define-xmlct/codelists/C170452", "title": "Version-agnostic anchor resource for codelist C170452", "type": "Root Value Domain"}, "self": {"href": "/mdr/ct/packages/define-xmlct-2022-12-16/codelists/C170452", "title": "CDISC Define-XML Standard Name Terminology", "type": "Code List"}}, "conceptId": "C170452", "definition": "Terminology relevant to the name of the standard described in the Define-XML document.", "extensible": "false", "name": "Standard Name", "preferredTerm": "CDISC Define-XML Standard Name Terminology", "submissionValue": "STDNAM", "synonyms": ["Standard Name"], "terms": [{"conceptId": "C170552", "definition": "The implementation guide for the Clinical Data Interchange Standards Consortium (CDISC) Analysis Data Model standard.", "preferredTerm": "ADaM Implementation Guide", "submissionValue": "ADaMIG"}, {"conceptId": "C191213", "definition": "The US Food and Drug Administration's (US FDA) dataset specification Bioresearch Monitoring Technical Conformance Guide.", "preferredTerm": "Bioresearch Monitoring Technical Conformance Guide", "submissionValue": "BIMO", "synonyms": ["Bioresearch Monitoring Technical Conformance Guide"]}, {"conceptId": "C163415", "definition": "A standard terminology developed and maintained by Clinical Data Interchange Standards Consortium (CDISC) and the National Cancer Institute Enterprise Vocabulary Services (NCI-EVS) to support CDISC models, domains and specifications for data representation in regulated research.", "preferredTerm": "Clinical Data Interchange Standards Consortium Controlled Terminology", "submissionValue": "CDISC/NCI", "synonyms": ["CDISC Controlled Terminology", "Clinical Data Interchange Standards Consortium Controlled Terminology"]}, {"conceptId": "C170455", "definition": "The implementation guide for the Clinical Data Interchange Standards Consortium (CDISC) Study Data Tabulation Model standard.", "preferredTerm": "SDTM Implementation Guide", "submissionValue": "SDTMIG"}, {"conceptId": "C170553", "definition": "The implementation guide for the Clinical Data Interchange Standards Consortium (CDISC) Study Data Tabulation Model Associated Persons standard.", "preferredTerm": "SDTM Implementation Guide-Associated Persons", "submissionValue": "SDTMIG-AP"}, {"conceptId": "C170554", "definition": "The implementation guide for the Clinical Data Interchange Standards Consortium (CDISC) Study Data Tabulation Model Medical Devices standard.", "preferredTerm": "SDTM Implementation Guide-Medical Devices", "submissionValue": "SDTMIG-MD"}, {"conceptId": "C170456", "definition": "The implementation guide for the Clinical Data Interchange Standards Consortium (CDISC) Standard for the Exchange of Nonclinical Data standard.", "preferredTerm": "SEND Implementation Guide", "submissionValue": "SENDIG"}, {"conceptId": "C181230", "definition": "The implementation guide for the Clinical Data Interchange Standards Consortium (CDISC) Standard for the Exchange of Nonclinical Data Animal Rule standard.", "preferredTerm": "SEND Implementation Guide-Animal Rule", "submissionValue": "SENDIG-AR"}, {"conceptId": "C170556", "definition": "The implementation guide for the Clinical Data Interchange Standards Consortium (CDISC) Standard for the Exchange of Nonclinical Data Developmental and Reproductive Toxicology standard.", "preferredTerm": "SEND Implementation Guide-Developmental and Reproductive Toxicology", "submissionValue": "SENDIG-DART"}]}