{"_links": {"parentPackage": {"href": "/mdr/ct/packages/define-xmlct-2022-12-16", "title": "Define-XML Controlled Terminology Package 52 Effective 2022-12-16", "type": "Terminology"}, "priorVersion": {"href": "/mdr/ct/packages/define-xmlct-2022-09-30/codelists/C172332", "title": "CDISC Define-XML Standard Status Terminology", "type": "Code List"}, "rootItem": {"href": "/mdr/root/ct/define-xmlct/codelists/C172332", "title": "Version-agnostic anchor resource for codelist C172332", "type": "Root Value Domain"}, "self": {"href": "/mdr/ct/packages/define-xmlct-2022-12-16/codelists/C172332", "title": "CDISC Define-XML Standard Status Terminology", "type": "Code List"}}, "conceptId": "C172332", "definition": "Terminology relevant to the development or publication status of the standard.", "extensible": "true", "name": "Standard Status", "preferredTerm": "CDISC Define-XML Standard Status Terminology", "submissionValue": "STDSTAT", "synonyms": ["Standard Status"], "terms": [{"conceptId": "C172453", "definition": "A preliminary version of a CDISC standard that has not yet completed the CDISC standards development process. (NCI)", "preferredTerm": "CDISC Draft Standard", "submissionValue": "DRAFT"}, {"conceptId": "C172455", "definition": "A final version of a CDISC standard that has completed the CDISC standards development process. (NCI)", "preferredTerm": "CDISC Final Standard", "submissionValue": "FINAL"}, {"conceptId": "C172454", "definition": "A version of a CDISC standard whose conclusiveness is dependent upon the fulfillment of some contingency or final alteration. (NCI)", "preferredTerm": "CDISC Provisional Standard", "submissionValue": "PROVISIONAL"}]}