{"_links": {"parentPackage": {"href": "/mdr/ct/packages/sendct-2022-12-16", "title": "SEND Controlled Terminology Package 52 Effective 2022-12-16", "type": "Terminology"}, "priorVersion": {"href": "/mdr/ct/packages/sendct-2022-09-30/codelists/C185849", "title": "CDISC SEND Epoch Terminology", "type": "Code List"}, "rootItem": {"href": "/mdr/root/ct/sendct/codelists/C185849", "title": "Version-agnostic anchor resource for codelist C185849", "type": "Root Value Domain"}, "self": {"href": "/mdr/ct/packages/sendct-2022-12-16/codelists/C185849", "title": "CDISC SEND Epoch Terminology", "type": "Code List"}}, "conceptId": "C185849", "definition": "Terminology relevant to the name of the non-clinical epoch.", "extensible": "true", "name": "SEND Epoch", "preferredTerm": "CDISC SEND Epoch Terminology", "submissionValue": "SEPOCH", "synonyms": ["SEND Epoch"], "terms": [{"conceptId": "C186260", "definition": "A period in a study during which the subject receives challenge agent.", "preferredTerm": "Challenge Epoch", "submissionValue": "CHALLENGE"}, {"conceptId": "C186271", "definition": "A period in a study prior to the subject receiving the first dose of investigational therapy or treatment, during which baseline measurements may be collected.", "preferredTerm": "Non-Clinical Pre-Treatment Epoch", "submissionValue": "PRE-TREATMENT"}, {"conceptId": "C186261", "definition": "A period in a study immediately following the end of treatment during which the subject(s) is no longer receiving investigational therapy or treatment but is still being assessed.", "preferredTerm": "Recovery Epoch", "submissionValue": "RECOVERY"}, {"conceptId": "C186262", "definition": "A period in a study immediately following the end of treatment during which the subject(s) is no longer receiving investigational therapy or treatment and is not being assessed.", "preferredTerm": "Treatment Free Epoch", "submissionValue": "TREATMENT FREE"}, {"conceptId": "C101526", "definition": "A period in a study during which subjects are receiving investigational therapy or treatment.", "preferredTerm": "Treatment Epoch", "submissionValue": "TREATMENT"}, {"conceptId": "C42872", "definition": "A period of time during a study when a subject is taken off of the investigational therapy or treatment in order to reduce the amount of investigational product within the body.", "preferredTerm": "Washout Period", "submissionValue": "WASHOUT"}]}