{"_links": {"parentPackage": {"href": "/mdr/ct/packages/sendct-2022-12-16", "title": "SEND Controlled Terminology Package 52 Effective 2022-12-16", "type": "Terminology"}, "priorVersion": {"href": "/mdr/ct/packages/sendct-2022-09-30/codelists/C89974", "title": "CDISC SEND Microscopic Findings Test Code Terminology", "type": "Code List"}, "rootItem": {"href": "/mdr/root/ct/sendct/codelists/C89974", "title": "Version-agnostic anchor resource for codelist C89974", "type": "Root Value Domain"}, "self": {"href": "/mdr/ct/packages/sendct-2022-12-16/codelists/C89974", "title": "CDISC SEND Microscopic Findings Test Code Terminology", "type": "Code List"}}, "conceptId": "C89974", "definition": "Terminology for the test codes concerned with the non-clinical findings from a specimen that are visible by microscopic analysis.", "extensible": "true", "name": "SEND Microscopic Findings Test Code", "preferredTerm": "CDISC SEND Microscopic Findings Test Code Terminology", "submissionValue": "MITESTCD", "synonyms": ["SEND Microscopic Findings Test Code"], "terms": [{"conceptId": "C147493", "definition": "A qualitative microscopic examination of tissue sections to determine the presence of pathologic finding(s). This term is intended to be used for non-targeted examinations.", "preferredTerm": "Qualitative Histopathologic Examination", "submissionValue": "GHISTXQL", "synonyms": ["General Histopathologic Examination, Qualitative", "General Histopathological Exam, Qual"]}, {"conceptId": "C186257", "definition": "A qualitative microscopic examination of reproductive tissue sections to determine the phase of the reproductive cycle.", "preferredTerm": "Reproductive Cycle Phase Microscopic Exam", "submissionValue": "RCPMIQL", "synonyms": ["ReproCycle Phase Microscopic Exam, Qual"]}, {"conceptId": "C176391", "definition": "A qualitative microscopic examination of reproductive tissue sections to determine sexual maturity.", "preferredTerm": "Qualitative Sexual Maturity Microscopic Examination", "submissionValue": "SXMTMIQL", "synonyms": ["Sexual Maturity Microscopic Exam, Qual"]}]}