{"_links": {"parentPackage": {"href": "/mdr/ct/packages/protocolct-2021-12-17", "title": "Protocol Controlled Terminology Package 48 Effective 2021-12-17", "type": "Terminology"}, "priorVersion": {"href": "/mdr/ct/packages/protocolct-2021-09-24/codelists/C154682", "title": "CDISC Protocol Entities Study Contact Information Attribute Terminology", "type": "Code List"}, "rootItem": {"href": "/mdr/root/ct/protocolct/codelists/C154682", "title": "Version-agnostic anchor resource for codelist C154682", "type": "Root Value Domain"}, "self": {"href": "/mdr/ct/packages/protocolct-2021-12-17/codelists/C154682", "title": "CDISC Protocol Entities Study Contact Information Attribute Terminology", "type": "Code List"}}, "conceptId": "C154682", "definition": "A terminology value set relevant to the attributes of the study contact information entity.", "name": "Study Contact Information Attribute Terminology", "preferredTerm": "CDISC Protocol Entities Study Contact Information Attribute Terminology", "submissionValue": "Study Contact Information Attribute Terminology", "synonyms": ["Study Contact Information Attribute Terminology"], "terms": [{"conceptId": "C25354", "definition": "An academic rank conferred by a college, university, or other postsecondary education institution as official recognition for the successful completion of a program of studies.", "preferredTerm": "Academic Degree", "submissionValue": "Academic Degree"}, {"conceptId": "C42775", "definition": "A text string identifier for a location to which electronic mail can be delivered. (NCI)", "preferredTerm": "E-mail Address", "submissionValue": "E-mail Address", "synonyms": ["Email Address"]}, {"conceptId": "C42879", "definition": "A telephone number that is used for identifying a specific fax machine in a telephone network.", "preferredTerm": "Fax Number", "submissionValue": "Fax Number", "synonyms": ["Facsimile Number"]}, {"conceptId": "C154704", "definition": "The name of the organization or entity that the person or group has an established relationship with.", "preferredTerm": "Organizational Affiliation Name", "submissionValue": "Organizational Affiliation"}, {"conceptId": "C25191", "definition": "A word or group of words indicating the identity of a person usually consisting of a first (personal) name and a last (family) name with an optional middle name. In some cultural traditions the family name comes first.", "preferredTerm": "Person Name", "submissionValue": "Person Name", "synonyms": ["Individual's Name", "Name"]}, {"conceptId": "C25407", "definition": "A standardized representation of the location of a person, business, building, or organization. (NCI)", "preferredTerm": "Address", "submissionValue": "Physical Address"}, {"conceptId": "C48835", "definition": "The usual or expected function of something; the part something plays in an action or event. (NCI)", "preferredTerm": "Role", "submissionValue": "Role"}, {"conceptId": "C40978", "definition": "A sequence of decimal digits (0-9) that is used for identifying a specific telephone line or other device in a telephone network.", "preferredTerm": "Telephone Number", "submissionValue": "Telephone Number", "synonyms": ["Phone Number"]}]}