{"_links": {"parentPackage": {"href": "/mdr/ct/packages/protocolct-2021-12-17", "title": "Protocol Controlled Terminology Package 48 Effective 2021-12-17", "type": "Terminology"}, "priorVersion": {"href": "/mdr/ct/packages/protocolct-2021-09-24/codelists/C174220", "title": "CDISC Protocol Study Product Attribute Terminology", "type": "Code List"}, "rootItem": {"href": "/mdr/root/ct/protocolct/codelists/C174220", "title": "Version-agnostic anchor resource for codelist C174220", "type": "Root Value Domain"}, "self": {"href": "/mdr/ct/packages/protocolct-2021-12-17/codelists/C174220", "title": "CDISC Protocol Study Product Attribute Terminology", "type": "Code List"}}, "conceptId": "C174220", "definition": "A terminology value set relevant to the attributes of the study product.", "name": "Study Product Attribute Terminology", "preferredTerm": "CDISC Protocol Study Product Attribute Terminology", "submissionValue": "Study Product Attribute Terminology", "synonyms": ["Study Product Attribute Terminology"], "terms": [{"conceptId": "C176267", "definition": "The act or process for documenting the storage, inventory tracking, and disposition of the study product.", "preferredTerm": "Study Product Accountability", "submissionValue": "Study Product Accountability"}, {"conceptId": "C176266", "definition": "The act or process by which the study product is obtained by the study site or investigator.", "preferredTerm": "Study Product Acquisition", "submissionValue": "Study Product Acquisition"}, {"conceptId": "C176269", "definition": "The outward or visible aspect of the study product.", "preferredTerm": "Study Product Appearance", "submissionValue": "Study Product Appearance"}, {"conceptId": "C176268", "definition": "The composition of the study product, which may include active and inactive ingredients, dose, and dosage form.", "preferredTerm": "Study Product Formulation", "submissionValue": "Study Product Formulation"}, {"conceptId": "C176271", "definition": "The written, printed, or graphic matter on, or accompanying, the study product or its packaging.", "preferredTerm": "Study Product Labeling", "submissionValue": "Study Product Labeling"}, {"conceptId": "C176275", "definition": "The enterprise or entity that produces the study product.", "preferredTerm": "Study Product Manufacturer", "submissionValue": "Study Product Manufacturer"}, {"conceptId": "C176270", "definition": "The material type and configuration used to contain the study product.", "preferredTerm": "Study Product Packaging", "submissionValue": "Study Product Packaging"}, {"conceptId": "C98768", "definition": "The pharmacological class of the investigational product.", "preferredTerm": "Pharmacological Class of Investigational Therapy", "submissionValue": "Study Product Pharmacologic Class", "synonyms": ["Pharmacologic Class"]}, {"conceptId": "C176274", "definition": "Instructions for the act of making ready the study product for use or administration.", "preferredTerm": "Study Product Preparation", "submissionValue": "Study Product Preparation"}, {"conceptId": "C176273", "definition": "The parameters under which the study product retains the same properties and characteristics that it possessed at the time of its manufacture for its intended use or administration. (After Anissa W. Wong, Aruna Datla.13-Assay and Stability Testing, Editor(s): Satinder Ahuja, Michael W. Dong, Separation Science and Technology, Academic Press, Volume 6, 2005, Pages 335-358)", "preferredTerm": "Study Product Stability", "submissionValue": "Study Product Stability"}, {"conceptId": "C176272", "definition": "The physical or environmental conditions under which the study product is maintained.", "preferredTerm": "Study Product Storage", "submissionValue": "Study Product Storage"}, {"conceptId": "C177927", "definition": "The classification of a study product based on the disease, disorder, or condition it is intended to treat.", "preferredTerm": "Study Product Therapeutic Class", "submissionValue": "Study Product Therapeutic Class", "synonyms": ["Study Product Therapeutic Category"]}, {"conceptId": "C174265", "definition": "The characterization or classification of the material artifact(s) that is the focus of the study.", "preferredTerm": "Study Product Type", "submissionValue": "Study Product Type"}]}