{"_links": {"parentPackage": {"href": "/mdr/ct/packages/protocolct-2021-12-17", "title": "Protocol Controlled Terminology Package 48 Effective 2021-12-17", "type": "Terminology"}, "priorVersion": {"href": "/mdr/ct/packages/protocolct-2021-09-24/codelists/C177905", "title": "CDISC Protocol Intervention Attribute Terminology", "type": "Code List"}, "rootItem": {"href": "/mdr/root/ct/protocolct/codelists/C177905", "title": "Version-agnostic anchor resource for codelist C177905", "type": "Root Value Domain"}, "self": {"href": "/mdr/ct/packages/protocolct-2021-12-17/codelists/C177905", "title": "CDISC Protocol Intervention Attribute Terminology", "type": "Code List"}}, "conceptId": "C177905", "definition": "A terminology value set relevant to the attributes of the intervention.", "name": "Intervention Attribute Terminology", "preferredTerm": "CDISC Protocol Intervention Attribute Terminology", "submissionValue": "Intervention Attribute Terminology", "synonyms": ["Intervention Attribute Terminology"], "terms": [{"conceptId": "C177931", "definition": "The textual representation of the study intervention.", "preferredTerm": "Intervention Description", "submissionValue": "Intervention Description"}, {"conceptId": "C177930", "definition": "The identifying name for the study intervention.", "preferredTerm": "Intervention Name", "submissionValue": "Intervention Name"}, {"conceptId": "C98747", "definition": "The kind of product or procedure studied in a trial.", "preferredTerm": "Intervention Type", "submissionValue": "Intervention Type", "synonyms": ["Intervention Type"]}]}