{"_links": {"parentPackage": {"href": "/mdr/ct/packages/protocolct-2021-12-17", "title": "Protocol Controlled Terminology Package 48 Effective 2021-12-17", "type": "Terminology"}, "priorVersion": {"href": "/mdr/ct/packages/protocolct-2021-09-24/codelists/C181168", "title": "CDISC Protocol Statement Attribute Terminology", "type": "Code List"}, "rootItem": {"href": "/mdr/root/ct/protocolct/codelists/C181168", "title": "Version-agnostic anchor resource for codelist C181168", "type": "Root Value Domain"}, "self": {"href": "/mdr/ct/packages/protocolct-2021-12-17/codelists/C181168", "title": "CDISC Protocol Statement Attribute Terminology", "type": "Code List"}}, "conceptId": "C181168", "definition": "A terminology value set relevant to the attributes of the protocol statement.", "name": "Protocol Statement Attribute Terminology", "preferredTerm": "CDISC Protocol Statement Attribute Terminology", "submissionValue": "Protocol Statement Attribute Terminology", "synonyms": ["Protocol Statement Attribute Terminology"], "terms": [{"conceptId": "C181244", "definition": "A written message within the study protocol that describes the provisions for use of biological samples for the duration of the study and, as applicable, for future use.", "preferredTerm": "Biological Sample Use Statement", "submissionValue": "Biological Sample Use Statement", "synonyms": ["Biological Specimen Use Statement", "Biospecimen Use Statement"]}, {"conceptId": "C181240", "definition": "A written message within the study protocol that describes how the study will manage actual or perceived conflicts of interest, including report to regulatory authorities and oversight entities.", "preferredTerm": "Conflict of Interest Statement", "submissionValue": "Conflict of Interest Statement"}, {"conceptId": "C181237", "definition": "A written message within the study protocol that asserts that the data are complete, consistent, accurate, trustworthy, and reliable throughout the life cycle of the study.", "preferredTerm": "Data Integrity Statement", "submissionValue": "Data Integrity Statement"}, {"conceptId": "C184394", "definition": "A written message within the study protocol that asserts compliance with data sharing policies.", "preferredTerm": "Data Sharing Compliance Policy Statement", "submissionValue": "Data Sharing Statement"}, {"conceptId": "C181241", "definition": "A written message within the study protocol that asserts how any and all financial interests of the study stakeholders will be managed in relation to the study.", "preferredTerm": "Study Protocol Financial Disclosure Statement", "submissionValue": "Financial Disclosure Statement"}, {"conceptId": "C181236", "definition": "A written message within the study protocol that asserts a statement of non-disclosure, such that information contained within the protocol document may only be shared with authorized parties.", "preferredTerm": "Protocol Confidentiality Statement", "submissionValue": "Protocol Confidentiality Statement"}, {"conceptId": "C181235", "definition": "A written message within the study protocol that asserts that the study will be conducted in compliance with Good Clinical Practice (GCP) guidelines, study protocol, and any other applicable regulatory requirements.", "preferredTerm": "Protocol Regulatory Compliance Statement", "submissionValue": "Protocol Regulatory Compliance Statement", "synonyms": ["Regulatory Compliance Statement"]}, {"conceptId": "C184393", "definition": "A written message within the study protocol that describes the policies pertaining to the publication of study results.", "preferredTerm": "Publication Policy Statement", "submissionValue": "Publication Policy Statement"}, {"conceptId": "C181239", "definition": "A written message within the study protocol that asserts that the study will be conducted in accordance with the ethical principles outlined in the Declaration of Helsinki and applicable regional regulations and guidelines.", "preferredTerm": "Statement of Ethical Conduct", "submissionValue": "Statement of Ethical Conduct"}, {"conceptId": "C181238", "definition": "A written message within the study protocol that asserts timely communication of study progress and results to the study stakeholders as well as regulatory authorities and study registries.", "preferredTerm": "Statement of Progress Reporting", "submissionValue": "Statement of Progress Reporting"}, {"conceptId": "C184392", "definition": "A written message within the study protocol that asserts that a study investigator will be responsible for the performance and conduct of the study as described in the protocol, and in accordance with relevant laws, regulations, and guidelines.", "preferredTerm": "Study Investigator Conduct Statement", "submissionValue": "Study Investigator Conduct Statement", "synonyms": ["Investigator Statement", "Study Investigator Statement"]}, {"conceptId": "C184391", "definition": "A written message within the study protocol that asserts that the study sponsor will be responsible for overseeing all aspects of study conduct.", "preferredTerm": "Study Sponsor Conduct Statement", "submissionValue": "Study Sponsor Conduct Statement", "synonyms": ["Sponsor Statement", "Study Sponsor Statement"]}, {"conceptId": "C181243", "definition": "A written message within the study protocol that asserts compliance with applicable regulations and guidelines to preserve and maintain study data confidentiality.", "preferredTerm": "Subject Data Confidentiality Statement", "submissionValue": "Subject Data Confidentiality Statement", "synonyms": ["Study Participant Data Confidentiality Statement"]}, {"conceptId": "C181242", "definition": "A written message within the study protocol that asserts compliance with applicable regulations and guidelines regarding the protection of study subject, or participant, privacy.", "preferredTerm": "Subject Privacy Statement", "submissionValue": "Subject Privacy Statement", "synonyms": ["Study Participant Privacy Statement"]}]}