{"_links": {"parentPackage": {"href": "/mdr/ct/packages/protocolct-2017-03-31", "title": "PROTOCOL Controlled Terminology Package 29 Effective 2017-03-31", "type": "Terminology"}, "rootItem": {"href": "/mdr/root/ct/protocolct/codelists/C132310", "title": "Version-agnostic anchor resource for codelist C132310", "type": "Root Value Domain"}, "self": {"href": "/mdr/ct/packages/protocolct-2017-03-31/codelists/C132310", "title": "CDISC Protocol Entities Terminology", "type": "Code List"}}, "conceptId": "C132310", "definition": "A terminology value set relevant to the entities within a protocol.", "name": "Protocol Entity Terminology", "preferredTerm": "CDISC Protocol Entities Terminology", "submissionValue": "Protocol Entity Terminology", "synonyms": ["Protocol Entity Terminology"], "terms": [{"conceptId": "C25407", "definition": "A standardized representation of the location of a person, business, building, or organization. (NCI)", "preferredTerm": "Address", "submissionValue": "Physical Address"}, {"conceptId": "C70817", "definition": "The formal plan of an experiment or research activity, including the objective, rationale, design, materials and methods for the conduct of the study, intervention description, and method of data analysis.", "preferredTerm": "Study Protocol", "submissionValue": "Study Protocol"}]}