{"_links": {"parentPackage": {"href": "/mdr/ct/packages/sdtmct-2022-09-30", "title": "SDTM Controlled Terminology Package 51 Effective 2022-09-30", "type": "Terminology"}, "priorVersion": {"href": "/mdr/ct/packages/sdtmct-2022-06-24/codelists/C100156", "title": "CDISC Questionnaire Short-Form MPQ-2 Test Code Terminology", "type": "Code List"}, "rootItem": {"href": "/mdr/root/ct/sdtmct/codelists/C100156", "title": "Version-agnostic anchor resource for codelist C100156", "type": "Root Value Domain"}, "self": {"href": "/mdr/ct/packages/sdtmct-2022-09-30/codelists/C100156", "title": "CDISC Questionnaire Short-Form MPQ-2 Test Code Terminology", "type": "Code List"}}, "conceptId": "C100156", "definition": "Short-Form McGill Pain Questionnaire-2 test code.", "extensible": "false", "name": "Short-Form McGill Pain Questionnaire-2 Questionnaire Test Code", "preferredTerm": "CDISC Questionnaire Short-Form MPQ-2 Test Code Terminology", "submissionValue": "SFMP2TC", "synonyms": ["Short-Form McGill Pain Questionnaire-2 Questionnaire Test Code"], "terms": [{"conceptId": "C100849", "definition": "Short-Form McGill Pain Questionnaire-2 - Throbbing pain.", "preferredTerm": "SF-MPQ-2 - Throbbing Pain", "submissionValue": "SFMP201", "synonyms": ["SFMP2-Throbbing Pain"]}, {"conceptId": "C100850", "definition": "Short-Form McGill Pain Questionnaire-2 - Shooting pain.", "preferredTerm": "SF-MPQ-2 - Shooting Pain", "submissionValue": "SFMP202", "synonyms": ["SFMP2-Shooting Pain"]}, {"conceptId": "C100851", "definition": "Short-Form McGill Pain Questionnaire-2 - Stabbing pain.", "preferredTerm": "SF-MPQ-2 - Stabbing Pain", "submissionValue": "SFMP203", "synonyms": ["SFMP2-Stabbing Pain"]}, {"conceptId": "C100852", "definition": "Short-Form McGill Pain Questionnaire-2 - Sharp pain.", "preferredTerm": "SF-MPQ-2 - Sharp Pain", "submissionValue": "SFMP204", "synonyms": ["SFMP2-Sharp Pain"]}, {"conceptId": "C100853", "definition": "Short-Form McGill Pain Questionnaire-2 - Cramping pain.", "preferredTerm": "SF-MPQ-2 - Cramping Pain", "submissionValue": "SFMP205", "synonyms": ["SFMP2-Cramping Pain"]}, {"conceptId": "C100854", "definition": "Short-Form McGill Pain Questionnaire-2 - Gnawing pain.", "preferredTerm": "SF-MPQ-2 - Gnawing Pain", "submissionValue": "SFMP206", "synonyms": ["SFMP2-Gnawing Pain"]}, {"conceptId": "C100855", "definition": "Short-Form McGill Pain Questionnaire-2 - Hot-burning pain.", "preferredTerm": "SF-MPQ-2 - Hot-burning Pain", "submissionValue": "SFMP207", "synonyms": ["SFMP2-Hot-burning Pain"]}, {"conceptId": "C100856", "definition": "Short-Form McGill Pain Questionnaire-2 - Aching pain.", "preferredTerm": "SF-MPQ-2 - Aching Pain", "submissionValue": "SFMP208", "synonyms": ["SFMP2-Aching Pain"]}, {"conceptId": "C100857", "definition": "Short-Form McGill Pain Questionnaire-2 - Heavy pain.", "preferredTerm": "SF-MPQ-2 - Heavy Pain", "submissionValue": "SFMP209", "synonyms": ["SFMP2-Heavy Pain"]}, {"conceptId": "C100858", "definition": "Short-Form McGill Pain Questionnaire-2 - Tender.", "preferredTerm": "SF-MPQ-2 - Tender", "submissionValue": "SFMP210", "synonyms": ["SFMP2-Tender"]}, {"conceptId": "C100859", "definition": "Short-Form McGill Pain Questionnaire-2 - Splitting pain.", "preferredTerm": "SF-MPQ-2 - Splitting Pain", "submissionValue": "SFMP211", "synonyms": ["SFMP2-Splitting Pain"]}, {"conceptId": "C100860", "definition": "Short-Form McGill Pain Questionnaire-2 - Tiring-exhausting.", "preferredTerm": "SF-MPQ-2 - Tiring-Exhausting", "submissionValue": "SFMP212", "synonyms": ["SFMP2-Tiring-Exhausting"]}, {"conceptId": "C100861", "definition": "Short-Form McGill Pain Questionnaire-2 - Sickening.", "preferredTerm": "SF-MPQ-2 - Sickening", "submissionValue": "SFMP213", "synonyms": ["SFMP2-Sickening"]}, {"conceptId": "C100862", "definition": "Short-Form McGill Pain Questionnaire-2 - Fearful.", "preferredTerm": "SF-MPQ-2 - Fearful", "submissionValue": "SFMP214", "synonyms": ["SFMP2-Fearful"]}, {"conceptId": "C100863", "definition": "Short-Form McGill Pain Questionnaire-2 - Punishing-cruel.", "preferredTerm": "SF-MPQ-2 - Punishing-Cruel", "submissionValue": "SFMP215", "synonyms": ["SFMP2-Punishing-Cruel"]}, {"conceptId": "C100864", "definition": "Short-Form McGill Pain Questionnaire-2 - Electric-shock pain.", "preferredTerm": "SF-MPQ-2 - Electric-Shock Pain", "submissionValue": "SFMP216", "synonyms": ["SFMP2-Electric-Shock Pain"]}, {"conceptId": "C100865", "definition": "Short-Form McGill Pain Questionnaire-2 - Cold-freezing pain.", "preferredTerm": "SF-MPQ-2 - Cold-Freezing Pain", "submissionValue": "SFMP217", "synonyms": ["SFMP2-Cold-Freezing Pain"]}, {"conceptId": "C100866", "definition": "Short-Form McGill Pain Questionnaire-2 - Piercing.", "preferredTerm": "SF-MPQ-2 - Piercing", "submissionValue": "SFMP218", "synonyms": ["SFMP2-Piercing"]}, {"conceptId": "C100867", "definition": "Short-Form McGill Pain Questionnaire-2 - Pain caused by light touch.", "preferredTerm": "SF-MPQ-2 - Pain Caused by Light Touch", "submissionValue": "SFMP219", "synonyms": ["SFMP2-Pain Caused by Light Touch"]}, {"conceptId": "C100868", "definition": "Short-Form McGill Pain Questionnaire-2 - Itching.", "preferredTerm": "SF-MPQ-2 - Itching", "submissionValue": "SFMP220", "synonyms": ["SFMP2-Itching"]}, {"conceptId": "C101021", "definition": "Short-Form McGill Pain Questionnaire-2 - Tingling or 'pins and needles'.", "preferredTerm": "SF-MPQ-2 - Tingling or 'Pins and Needles'", "submissionValue": "SFMP221", "synonyms": ["SFMP2-Tingling or 'Pins and Needles'"]}, {"conceptId": "C100869", "definition": "Short-Form McGill Pain Questionnaire-2 - Numbness.", "preferredTerm": "SF-MPQ-2 - Numbness", "submissionValue": "SFMP222", "synonyms": ["SFMP2-Numbness"]}]}