{"_links": {"parentPackage": {"href": "/mdr/ct/packages/sdtmct-2022-09-30", "title": "SDTM Controlled Terminology Package 51 Effective 2022-09-30", "type": "Terminology"}, "priorVersion": {"href": "/mdr/ct/packages/sdtmct-2022-06-24/codelists/C101858", "title": "CDISC SDTM Procedure Terminology", "type": "Code List"}, "rootItem": {"href": "/mdr/root/ct/sdtmct/codelists/C101858", "title": "Version-agnostic anchor resource for codelist C101858", "type": "Root Value Domain"}, "self": {"href": "/mdr/ct/packages/sdtmct-2022-09-30/codelists/C101858", "title": "CDISC SDTM Procedure Terminology", "type": "Code List"}}, "conceptId": "C101858", "definition": "A terminology codelist to describe any activity considered to be a therapeutic or diagnostic procedure.", "extensible": "true", "name": "Procedure", "preferredTerm": "CDISC SDTM Procedure Terminology", "submissionValue": "PROCEDUR", "synonyms": ["Procedure"], "terms": [{"conceptId": "C16035", "definition": "A process by which a dose of radiation is automatically shaped to closely conform to the entire volume of the tumor, so that surrounding normal tissue is spared and treatment toxicity is decreased. (NCI)", "preferredTerm": "3-Dimensional Conformal Radiation Therapy", "submissionValue": "3D CONFORMAL RADIATION THERAPY", "synonyms": ["3D CRT"]}, {"conceptId": "C20985", "definition": "Removal, separation, detachment, extirpation or eradication of a body part, pathway or function by surgery, chemical destruction, morbid process, or noxious substance. (NCI)", "preferredTerm": "Ablation Therapy", "submissionValue": "ABLATION"}, {"conceptId": "C99907", "definition": "An invasive therapeutic procedure to destroy tissue in an accessory pathways in the atrioventricular conduction system that contributes to arrhythmia.", "preferredTerm": "Ablation of Cardiac Accessory Pathway", "submissionValue": "ABLATION, ACCESSORY PATHWAYS"}, {"conceptId": "C80432", "definition": "An invasive therapeutic procedure to destroy tissue in the cardiac atria that is the source of an arrhythmia.", "preferredTerm": "Atrial Ablation", "submissionValue": "ABLATION, ATRIAL"}, {"conceptId": "C99908", "definition": "An invasive therapeutic procedure to destroy tissue in the AV-node that contributes to arrhythmia.", "preferredTerm": "Ablation of Cardiac Atrioventricular Node", "submissionValue": "ABLATION, AV NODE"}, {"conceptId": "C111157", "definition": "Removal, separation, detachment, extirpation or eradication of a body part, pathway or function by chemical means. (NCI)", "preferredTerm": "Chemical Ablation", "submissionValue": "ABLATION, CHEMICAL"}, {"conceptId": "C111241", "definition": "Removal, separation, detachment, extirpation or eradication of a body part, pathway or function by light amplification by stimulated emission of radiation. (NCI)", "preferredTerm": "Laser Ablation", "submissionValue": "ABLATION, LASER"}, {"conceptId": "C80433", "definition": "An invasive therapeutic procedure to destroy tissue in the cardiac ventricles that is the source of an arrhythmia.", "preferredTerm": "Ventricular Ablation", "submissionValue": "ABLATION, VENTRICULAR"}, {"conceptId": "C99916", "definition": "Dilation of the valve between the left ventricle of the heart and the aorta by inflating a balloon.", "preferredTerm": "Aortic Balloon Valvotomy", "submissionValue": "AORTIC BALLOON VALVOTOMY"}, {"conceptId": "C50815", "definition": "Surgery performed with the purpose of replacing a degenerated, calcified, malformed, dysfunctional, etc. aortic valve with a bioprosthetic, homograft, or autograft valve.", "preferredTerm": "Aortic Valve Replacement", "submissionValue": "AORTIC VALVE REPLACEMENT"}, {"conceptId": "C172590", "definition": "Implantation of a prosthetic device into the body to replace the function of both cardiac ventricles and all four cardiac valves, typically as a bridge to transplantation.", "preferredTerm": "Total Artificial Heart Implantation", "submissionValue": "ARTIFICIAL HEART IMPLANTATION", "synonyms": ["Total Artificial Heart Implantation"]}, {"conceptId": "C99939", "definition": "Repair of atrial septum.", "preferredTerm": "Closure of Cardiac Atrial Septum", "submissionValue": "ATRIAL SEPTAL CLOSURE"}, {"conceptId": "C124039", "definition": "A type of non-invasive mechanical ventilation procedure that that uses bilevel positive airway pressure to support spontaneous breathing activity.", "preferredTerm": "Biphasic Positive Airway Pressure", "submissionValue": "BILEVEL POSITIVE AIRWAY PRESSURE VENTILATION", "synonyms": ["BIPAP Ventilation", "BPAP Ventilation"]}, {"conceptId": "C91828", "definition": "Surgical removal of two lobes of the right lung.", "preferredTerm": "Bilobectomy", "submissionValue": "BILOBECTOMY", "synonyms": ["Right Lung Bilobectomy"]}, {"conceptId": "C15189", "definition": "The removal of tissue specimens or fluid from the living body for microscopic examination, performed to establish a diagnosis.", "preferredTerm": "Biopsy", "submissionValue": "BIOPSY"}, {"conceptId": "C15680", "definition": "A type of biopsy in which a tissue sample is removed using a needle with a relatively large diameter.", "preferredTerm": "Core Biopsy", "submissionValue": "BIOPSY, CORE", "synonyms": ["CNB", "Core Needle Biopsy", "Needle Biopsy"]}, {"conceptId": "C15385", "definition": "A type of biopsy in which an entire lesion is removed for microscopic examination.", "preferredTerm": "Excisional Biopsy", "submissionValue": "BIOPSY, EXCISIONAL"}, {"conceptId": "C15386", "definition": "A type of biopsy in which part of a lesion is removed for microscopic examination.", "preferredTerm": "Incisional Biopsy", "submissionValue": "BIOPSY, INCISIONAL"}, {"conceptId": "C28743", "definition": "A type of biopsy in which a disk of tissue is removed using a punch device.", "preferredTerm": "Punch Biopsy", "submissionValue": "BIOPSY, PUNCH"}, {"conceptId": "C172595", "definition": "A surgical procedure in which a cardiac pacing device with a built-in cardioverter defibrillator is placed under the skin, with leads positioned in the right atrium and both ventricles.", "preferredTerm": "Cardiac Resynchronization Therapy Defibrillator Implantation", "submissionValue": "BIVENTRICULAR DEFIBRILLATING CARDIAC PACEMAKER IMPLANTATION", "synonyms": ["CRT-D Implantation"]}, {"conceptId": "C172593", "definition": "A mechanical fluid removal technique that involves the pressure-driven movement of plasma water and solutes from whole blood across a semipermeable membrane.", "preferredTerm": "Blood Ultrafiltration", "submissionValue": "BLOOD ULTRAFILTRATION"}, {"conceptId": "C15194", "definition": "A therapeutic procedure to replace diseased or pathologic bone marrow with transplanted, healthy bone marrow cells.", "preferredTerm": "Bone Marrow Transplantation", "submissionValue": "BONE MARROW TRANSPLANT", "synonyms": ["BMT"]}, {"conceptId": "C15195", "definition": "A type of radiation therapy in which radioactive material is placed inside the body, into a tumor or body cavity.", "preferredTerm": "Brachytherapy", "submissionValue": "BRACHYTHERAPY"}, {"conceptId": "C66891", "definition": "A type of brachytherapy in which radioactive material sealed in needles, seeds, wires, or catheters is placed directly into a tumor or body tissue.", "preferredTerm": "Interstitial Radiation Therapy", "submissionValue": "BRACHYTHERAPY, INTERSTITIAL"}, {"conceptId": "C28049", "definition": "A type of brachytherapy in which radioactive material sealed in needles, seeds, wires, or catheters is placed directly into a body cavity such as the chest cavity or the vagina.", "preferredTerm": "Intracavitary Radiation Therapy", "submissionValue": "BRACHYTHERAPY, INTRACAVITARY"}, {"conceptId": "C170616", "definition": "Any of a number of implantable cardiac devices meant to aid the heart in carrying out its functions.", "preferredTerm": "Cardiac Assist Device", "submissionValue": "CARDIAC ASSIST DEVICE"}, {"conceptId": "C38044", "definition": "A procedure in which a thin plastic tube (catheter) is inserted into an artery or vein in the arm or leg and then advanced into the chambers of the heart or into the coronary arteries.", "preferredTerm": "Cardiac Catheterization", "submissionValue": "CARDIAC CATHETERIZATION"}, {"conceptId": "C80436", "definition": "An invasive procedure that includes an electronic device that stimulates both right and left cardiac ventricles to improve coordination of ventricular contraction.", "preferredTerm": "Cardiac Resynchronization Therapy", "submissionValue": "CARDIAC RESYNCHRONIZATION THERAPY", "synonyms": ["Biventricular Cardiac Pacemaker Procedure", "CRT"]}, {"conceptId": "C100080", "definition": "A procedure performed during a percutaneous coronary intervention in which a device is deployed into the lumen of a coronary artery to expand and support the vessel wall such that the vessel remains patent and blood flow is uninhibited.", "preferredTerm": "Cardiac Stent Placement", "submissionValue": "CARDIAC STENT PLACEMENT"}, {"conceptId": "C15246", "definition": "A surgical procedure in which a damaged heart is removed and replaced by another heart from a suitable donor.", "preferredTerm": "Heart Transplantation", "submissionValue": "CARDIAC TRANSPLANT", "synonyms": ["Heart Transplant"]}, {"conceptId": "C99937", "definition": "The administration of pharmacologic agents to correct abnormal heart rhythm.", "preferredTerm": "Chemical Cardioversion", "submissionValue": "CARDIOVERSION, CHEMICAL", "synonyms": ["CHEMICAL CARDIOVERSION"]}, {"conceptId": "C99948", "definition": "The administration of electric current to correct abnormal heart rhythm.", "preferredTerm": "Electric Cardioversion", "submissionValue": "CARDIOVERSION, ELECTRICAL", "synonyms": ["ELECTRICAL CARDIOVERSION"]}, {"conceptId": "C157809", "definition": "A surgical procedure to remove the clouded lens from the eye, and oftentimes replace it with an artificial lens.", "preferredTerm": "Cataract Surgery", "submissionValue": "CATARACT SURGERY"}, {"conceptId": "C15632", "definition": "The use of synthetic or naturally-occurring chemicals for the treatment of diseases.", "preferredTerm": "Chemotherapy", "submissionValue": "CHEMOTHERAPY"}, {"conceptId": "C51676", "definition": "Surgical removal of the gallbladder.", "preferredTerm": "Cholecystectomy", "submissionValue": "CHOLECYSTECTOMY"}, {"conceptId": "C16450", "definition": "Endoscopic examination of the luminal surface of the colon.", "preferredTerm": "Colonoscopy", "submissionValue": "COLONOSCOPY"}, {"conceptId": "C124040", "definition": "A type of non-invasive mechanical ventilation procedure that uses continuous positive airway pressure to support spontaneous breathing activity.", "preferredTerm": "Continuous Positive Airway Pressure", "submissionValue": "CONTINUOUS POSITIVE AIRWAY PRESSURE VENTILATION", "synonyms": ["CPAP Ventilation"]}, {"conceptId": "C174358", "definition": "A type of ECG gated MRI in which the images are enhanced by the addition of contrast agents into the body.", "preferredTerm": "Contrast Enhanced ECG Gated MRI", "submissionValue": "CONTRAST ENHANCED ECG GATED MRI"}, {"conceptId": "C51998", "definition": "A procedure performed to bypass partially or completely occluded coronary arteries with veins and/or arteries harvested from elsewhere in the body, thereby improving the blood supply to the coronary circulation supplying the myocardium (heart muscle).", "preferredTerm": "Coronary Artery Bypass Surgery", "submissionValue": "CORONARY ARTERY BYPASS GRAFT", "synonyms": ["Aortocoronary Bypass", "CAB", "CABG", "Coronary Artery Bypass", "Coronary Artery Bypass Graft", "Coronary Artery Bypass Graft Surgery", "Coronary Artery Bypass Grafting", "Heart Bypass"]}, {"conceptId": "C15215", "definition": "Removal, separation, detachment, extirpation or eradication of a body part, pathway or function by freezing. (NCI)", "preferredTerm": "Cryosurgery", "submissionValue": "CRYOABLATION"}, {"conceptId": "C40030", "definition": "The therapeutic use of cold or refrigeration.", "preferredTerm": "Cryotherapy", "submissionValue": "CRYOTHERAPY"}, {"conceptId": "C17204", "definition": "An imaging technique for examining structures within the body by scanning them with X rays and using a computer to construct a series of cross-sectional scans along a single axis.", "preferredTerm": "Computed Tomography", "submissionValue": "CT SCAN", "synonyms": ["CAT Scan", "Computed Axial Tomography", "Computed Tomography", "Computerized Tomography", "CT"]}, {"conceptId": "C15216", "definition": "The removal of tissue with a curette (a spoon-shaped instrument with a sharp edge).", "preferredTerm": "Curettage Procedure", "submissionValue": "CURETTAGE"}, {"conceptId": "C166089", "definition": "A type of digital fundus photography that makes use of a significantly wider viewing angle than traditional fundus photography.", "preferredTerm": "Digital Wide Field Fundus Photography", "submissionValue": "DIGITAL WIDE FIELD FUNDUS PHOTOGRAPHY"}, {"conceptId": "C174359", "definition": "A type of ECG gated MRI in which the images are not enhanced by the addition of contrast agents into the body.", "preferredTerm": "ECG Gated MRI Without Contrast", "submissionValue": "ECG GATED MRI WITHOUT CONTRAST"}, {"conceptId": "C174231", "definition": "A type of magnetic resonance imaging in which data is acquired during a specified portion of the cardiac cycle, allowing for the collection of stop motion imaging of the heart.", "preferredTerm": "ECG Gated MRI", "submissionValue": "ECG GATED MRI"}, {"conceptId": "C111192", "definition": "A procedure for destroying tissue using an electrical current.", "preferredTerm": "Electrocauterization", "submissionValue": "ELECTROCAUTERIZATION"}, {"conceptId": "C52002", "definition": "Excision of an atheromatous plaque. (NCI)", "preferredTerm": "Endarterectomy", "submissionValue": "ENDARTERECTOMY"}, {"conceptId": "C15232", "definition": "The act of cutting out; the surgical removal of part or all of a structure or organ. (NCI)", "preferredTerm": "Excision", "submissionValue": "EXCISION"}, {"conceptId": "C51779", "definition": "Creation of a surgical opening into the abdominal cavity for examination of the contents of the abdominal cavity as a means of diagnosis.", "preferredTerm": "Exploratory Laparotomy", "submissionValue": "EXPLORATORY LAPAROTOMY", "synonyms": ["Celiotomy"]}, {"conceptId": "C15751", "definition": "A type of radiation therapy in which high-energy beams are delivered to the tumor from outside of the body.", "preferredTerm": "External Beam Radiation Therapy", "submissionValue": "EXTERNAL BEAM RADIATION THERAPY"}, {"conceptId": "C187966", "definition": "The use of an adsorbing hemofilter in an external blood purification device to reduce cytokine levels in the blood.", "preferredTerm": "Extracorporeal Cytokine Adsorption Hemofiltration", "submissionValue": "EXTRACORPOREAL CYTOKINE ADSORPTION HEMOFILTRATION"}, {"conceptId": "C171507", "definition": "A technique that utilizes a device to pump a patient's blood outside of the body, oxygenate it, and return it to the body.", "preferredTerm": "Extracorporeal Membrane Oxygenation", "submissionValue": "EXTRACORPOREAL MEMBRANE OXYGENATION", "synonyms": ["ECMO"]}, {"conceptId": "C99546", "definition": "Any surgical procedure performed for the purpose of repairing or replacing a degenerated, calcified, malformed, or dysfunctional heart valve.", "preferredTerm": "Cardiac Valve Procedure", "submissionValue": "HEART VALVE PROCEDURE"}, {"conceptId": "C15248", "definition": "A therapeutic procedure involving the extracorporeal removal of harmful waste and fluids from the blood using a dialysis machine. Following dialysis, the blood is returned to the body.", "preferredTerm": "Hemodialysis", "submissionValue": "HEMODIALYSIS"}, {"conceptId": "C172594", "definition": "A mechanical fluid removal technique that involves the pressure-driven movement of plasma water and solutes from whole blood through a system of extracorporeal filters, with simultaneous reinfusion of replacement fluid into the body to keep volume homeostasis.", "preferredTerm": "Hemofiltration", "submissionValue": "HEMOFILTRATION"}, {"conceptId": "C15651", "definition": "A type of brachytherapy that targets a cancerous tissue with high doses of radiation through the use of inserted temporary implants.", "preferredTerm": "High-Dose Rate Brachytherapy", "submissionValue": "HIGH-DOSE RATE BRACHYTHERAPY"}, {"conceptId": "C171510", "definition": "The delivery of heated, humidified, oxygen-enriched gas via nasal cannula at flow rates greater than those typically delivered by standard-flow oxygen devices.", "preferredTerm": "High-Flow Nasal Cannula Oxygen Therapy", "submissionValue": "HIGH-FLOW NASAL CANNULA OXYGEN THERAPY", "synonyms": ["HFNC Oxygen Therapy"]}, {"conceptId": "C38064", "definition": "An electrocardiographic method for collecting continuous ECG waveforms with a variable number of discrete leads with duration longer than the standard 10 second ECG. Holter recording may be performed in patients who are ambulatory, and may collect data for 24 hours or longer.", "preferredTerm": "Holter Monitoring", "submissionValue": "HOLTER CONTINUOUS ECG RECORDING"}, {"conceptId": "C15262", "definition": "A therapy designed to induce changes in a patient's immune status.", "preferredTerm": "Immunotherapy", "submissionValue": "IMMUNOTHERAPY"}, {"conceptId": "C80435", "definition": "A procedure involving an electronic device implanted in the body that delivers electrical stimulation to the heart to treat tachycardia. It may also have the capability to treat bradycardia.", "preferredTerm": "Implantable Cardioverter-Defibrillator Placement", "submissionValue": "IMPLANTABLE CARDIOVERTER DEFIBRILLATOR", "synonyms": ["Implantable Cardioverter Defibrillator Procedure"]}, {"conceptId": "C62730", "definition": "The use of an intense beam of light, such as a laser, to seal off blood vessels or destroy tissue. (NCI)", "preferredTerm": "Infrared Photocoagulation Therapy", "submissionValue": "INFRARED PHOTO COAGULATION", "synonyms": ["Infrared Coagulation"]}, {"conceptId": "C16135", "definition": "An advanced form of 3-Dimensional Conformal Radiation Therapy (3D CRT) that involves the use of varying intensities of small radiation beams to produce dosage distributions that are more precise than those possible with 3D CRT. (NCI)", "preferredTerm": "Intensity-Modulated Radiation Therapy", "submissionValue": "INTENSITY-MODULATED RADIATION THERAPY"}, {"conceptId": "C172591", "definition": "A type of mechanical circulatory support procedure in which a balloon catheter inserted into the proximal descending aorta is inflated immediately after aortic valve closure in diastole and deflated just before aortic valve opening in systole, with the augmentation of coronary blood flow during diastole increasing coronary blood flow and systemic perfusion.", "preferredTerm": "Intra-aortic Balloon Pump Counterpulsation", "submissionValue": "INTRA-AORTIC BALLOON PUMP THERAPY"}, {"conceptId": "C99934", "definition": "A procedure involving one or more wires used for pacemaker or implantable defibrillator devices.", "preferredTerm": "Cardiac Lead Procedure", "submissionValue": "LEAD", "synonyms": ["Lead Procedure"]}, {"conceptId": "C99965", "definition": "The therapeutic blockage of the muscular pouch in the left atrium.", "preferredTerm": "Intentional Left Cardiac Atrial Appendage Occlusion Procedure", "submissionValue": "LEFT ATRIAL APPENDAGE OCCLUSION"}, {"conceptId": "C51624", "definition": "Surgical removal of the left portion of the colon.", "preferredTerm": "Left Colectomy", "submissionValue": "LEFT COLECTOMY"}, {"conceptId": "C172327", "definition": "A procedure involving the implantation of a mechanical cardiac pump which receives blood from the left ventricle and delivers it to the aorta. (NCI)", "preferredTerm": "Left Ventricular Assist Device Insertion", "submissionValue": "LEFT VENTRICULAR ASSIST DEVICE IMPLANTATION", "synonyms": ["LVAD Implantation", "LVAD Insertion"]}, {"conceptId": "C99975", "definition": "An examination and assessment of the inability of the left ventricle to effectively pump blood to the body.", "preferredTerm": "Left Cardiac Ventricular Systolic Dysfunction Evaluation", "submissionValue": "LEFT VENTRICULAR SYSTOLIC DYSFUNCTION EVALUATION"}, {"conceptId": "C15272", "definition": "Surgical removal of a lobe of an organ.", "preferredTerm": "Lobectomy", "submissionValue": "LOBECTOMY"}, {"conceptId": "C156582", "definition": "Any immunotherapy that targets, or is restricted to, a specific anatomical location.", "preferredTerm": "Local Immunotherapy Procedure", "submissionValue": "LOCAL IMMUNOTHERAPY"}, {"conceptId": "C113716", "definition": "Resection of the rectum through an incision in the lower abdomen.", "preferredTerm": "Low Anterior Resection", "submissionValue": "LOW ANTERIOR RESECTION", "synonyms": ["LAR", "Lower Anterior Rectal Resection"]}, {"conceptId": "C85254", "definition": "A type of brachytherapy that targets a cancerous tissue with low doses of radiation through the use of inserted temporary or permanent implants.", "preferredTerm": "Low-Dose Rate Brachytherapy", "submissionValue": "LOW-DOSE RATE BRACHYTHERAPY"}, {"conceptId": "C15755", "definition": "Surgical removal of a discrete mass.", "preferredTerm": "Lumpectomy", "submissionValue": "LUMPECTOMY"}, {"conceptId": "C15275", "definition": "Surgical removal of the lymph node(s).", "preferredTerm": "Lymphadenectomy", "submissionValue": "LYMPHADENECTOMY", "synonyms": ["Lymph Node Dissection", "Lymph Node Excision"]}, {"conceptId": "C70909", "definition": "A procedure that mechanically assists or replaces spontaneous breathing in patients by use of a powered device that forces oxygenated air into the lungs.", "preferredTerm": "Mechanical Ventilation", "submissionValue": "MECHANICAL VENTILATION"}, {"conceptId": "C94461", "definition": "Surgical removal of metastases.", "preferredTerm": "Metastasectomy", "submissionValue": "METASTASECTOMY"}, {"conceptId": "C93351", "definition": "Any therapeutic procedure in which microwave irradiation is used for the purpose of heating and destroying targeted tissue.", "preferredTerm": "Microwave Thermotherapy", "submissionValue": "MICROWAVE THERAPY", "synonyms": ["Microwave Thermotherapy"]}, {"conceptId": "C99987", "definition": "Dilation of the valve between the left atrium and the left ventricle of the heart by inflating a balloon.", "preferredTerm": "Mitral Balloon Valvotomy", "submissionValue": "MITRAL BALLOON VALVOTOMY"}, {"conceptId": "C99988", "definition": "Dilation of the valve between the left atrium and the left ventricle of the heart by use of a surgeon's finger or rigid instrument.", "preferredTerm": "Mitral Commissurotomy", "submissionValue": "MITRAL COMMISSUROTOMY"}, {"conceptId": "C80449", "definition": "Surgery performed for the purpose of reducing regurgitation of the mitral valve.", "preferredTerm": "Mitral Valve Repair", "submissionValue": "MITRAL VALVE REPAIR"}, {"conceptId": "C50825", "definition": "Surgery performed with the purpose of replacing a degenerated, calcified, malformed, dysfunctional, etc. mitral valve with bioprosthetic, homograft or autograft valve.", "preferredTerm": "Mitral Valve Replacement", "submissionValue": "MITRAL VALVE REPLACEMENT"}, {"conceptId": "C15278", "definition": "Surgical removal of one or both breasts, including the areola, nipple, and the majority of the axillary lymph nodes, but sparing the pectoralis major muscle.", "preferredTerm": "Modified Radical Mastectomy", "submissionValue": "MODIFIED RADICAL MASTECTOMY"}, {"conceptId": "C28208", "definition": "A dermatologic procedure used to treat certain forms of skin cancer in which tissue is removed and immediately tested via frozen section; tissue continues to be removed until clear margins are achieved.", "preferredTerm": "Mohs Surgery", "submissionValue": "MOHS SURGERY"}, {"conceptId": "C16809", "definition": "Imaging that uses radiofrequency waves and a strong magnetic field rather than x-rays to provide amazingly clear and detailed pictures of internal organs and tissues. The technique is valuable for the diagnosis of many pathologic conditions, including cancer, heart and vascular disease, stroke, and joint and musculoskeletal disorders.", "preferredTerm": "Magnetic Resonance Imaging", "submissionValue": "MRI", "synonyms": ["Magnetic Resonance Imaging"]}, {"conceptId": "C38073", "definition": "A multi-gated acquisition (MUGA) scan and a form of radionuclide imaging that provides a comprehensive look at blood flow and the function of the lower chambers of the heart ventricles. (NCI)", "preferredTerm": "Multigated Acquisition Scan", "submissionValue": "MUGA", "synonyms": ["Radionuclide Ventriculogram Scan"]}, {"conceptId": "C99995", "definition": "An operative procedure that does not involve the heart or the blood vessels.", "preferredTerm": "Non-Cardiovascular Surgery", "submissionValue": "NON-CARDIOVASCULAR SURGERY"}, {"conceptId": "C171457", "definition": "A type of mechanical ventilation procedure that uses a non-invasive means, such as a face mask or nasal mask, to deliver oxygenated air into the lungs.", "preferredTerm": "Non-Invasive Mechanical Ventilation", "submissionValue": "NON-INVASIVE MECHANICAL VENTILATION", "synonyms": ["NIV", "Non-Invasive Ventilation"]}, {"conceptId": "C99998", "definition": "A procedure involving an electronic device that delivers electrical stimulation to the heart to treat bradycardia.", "preferredTerm": "Pacemaker Procedure", "submissionValue": "PACEMAKER", "synonyms": ["Pacemaker Procedure"]}, {"conceptId": "C179785", "definition": "Placement of a stent within the pancreas.", "preferredTerm": "Pancreatic Stent Placement", "submissionValue": "PANCREATIC STENT PLACEMENT"}, {"conceptId": "C15356", "definition": "Surgical removal of the head of the pancreas, the first part of the small intestine (duodenum), the gallbladder and the bile duct. (Mayo Clinic)", "preferredTerm": "Whipple Procedure", "submissionValue": "PANCREATICODUODENECTOMY", "synonyms": ["Kausch-Whipple Procedure", "Pancreatoduodenectomy", "Whipple Procedure"]}, {"conceptId": "C17348", "definition": "A biospecimen collection and staining procedure in which secretions and superficial cells of the cervix are collected and stained with the Papanicolaou stain followed by microscopic examination to identify the presence of abnormal cells.", "preferredTerm": "Pap Smear", "submissionValue": "PAP SMEAR"}, {"conceptId": "C51666", "definition": "Surgical removal of part of the pancreas.", "preferredTerm": "Partial Pancreatectomy", "submissionValue": "PARTIAL PANCREATECTOMY"}, {"conceptId": "C99521", "definition": "A percutaneous coronary intervention (PCI) is the placement of an angioplasty guide wire, balloon, or other device (e.g. stent, atherectomy, brachytherapy, or thrombectomy catheter) into a native coronary artery or coronary artery bypass graft for the purpose of mechanical coronary revascularization. Examples of things not considered to be PCI procedures include intravascular ultrasound, measurements of coronary flow reserve, or measurements of fractional flow reserve.", "preferredTerm": "Percutaneous Coronary Intervention", "submissionValue": "PERCUTANEOUS CORONARY INTERVENTION", "synonyms": ["PCI"]}, {"conceptId": "C100003", "definition": "Invasive procedure through a puncture in the skin, performed for the purpose of reducing regurgitation of the mitral valve.", "preferredTerm": "Percutaneous Mitral Valve Repair", "submissionValue": "PERCUTANEOUS MITRAL REPAIR"}, {"conceptId": "C172592", "definition": "A minimally invasive procedure in which a catheter is inserted into the femoral artery or vein in order to temporarily connect a mechanical circulatory support device that is worn outside the body to the circulatory system.", "preferredTerm": "Percutaneous Ventricular Assist Device Placement", "submissionValue": "PERCUTANEOUS VENTRICULAR ASSIST DEVICE PLACEMENT", "synonyms": ["PVAD Insertion", "PVAD Placement"]}, {"conceptId": "C100004", "definition": "Removal or resection of the pericardium.", "preferredTerm": "Pericardial Stripping", "submissionValue": "PERICARDIAL STRIPPING"}, {"conceptId": "C51618", "definition": "A procedure in which an opening is made in the pericardium.", "preferredTerm": "Pericardial Window Procedure", "submissionValue": "PERICARDIAL WINDOW"}, {"conceptId": "C52010", "definition": "The aspiration of excess fluid between the pericardium and the heart.", "preferredTerm": "Pericardiocentesis", "submissionValue": "PERICARDIOCENTESIS"}, {"conceptId": "C15430", "definition": "A therapeutic procedure that involves the transplantation of stem cells harvested from the circulating blood of a patient or donor.", "preferredTerm": "Peripheral Blood Stem Cell Transplantation", "submissionValue": "PERIPHERAL BLOOD STEM CELL TRANSPLANT"}, {"conceptId": "C116150", "definition": "A peripheral vascular intervention is a catheter-based or open surgical procedure designed to improve arterial or venous blood flow or otherwise modify or revise vascular conduits. In general, the intention to perform percutaneous vascular intervention is denoted by the insertion of a guide wire into an artery or vein. For the sake of simplicity, this definition applies to the extracranial carotid artery and other non-cardiac arteries and veins, while it excludes the lymphatics and intracranial vessels.", "preferredTerm": "Peripheral Vascular Intervention", "submissionValue": "PERIPHERAL VASCULAR INTERVENTION", "synonyms": ["PVI"]}, {"conceptId": "C15300", "definition": "Use of light and photosensitizing agents to treat cancer and other conditions.", "preferredTerm": "Photodynamic Therapy", "submissionValue": "PHOTODYNAMIC THERAPY", "synonyms": ["PDT"]}, {"conceptId": "C15301", "definition": "The treatment of a disorder by exposure to light, including ultraviolet and infrared radiation. (Bartleby.com)", "preferredTerm": "Phototherapy", "submissionValue": "PHOTOTHERAPY"}, {"conceptId": "C51651", "definition": "The surgical removal of all or part of the pleura. (NCI)", "preferredTerm": "Pleurectomy", "submissionValue": "PLEURECTOMY"}, {"conceptId": "C66899", "definition": "A therapeutic surgical procedure in which the pleural space is surgically eliminated by the adherence of the visceral and parietal pleurae. (NCI)", "preferredTerm": "Pleurodesis", "submissionValue": "PLEURODESIS"}, {"conceptId": "C25349", "definition": "Surgical removal of a polypoid lesion from the mucosal surface.", "preferredTerm": "Polypectomy", "submissionValue": "POLYPECTOMY"}, {"conceptId": "C157960", "definition": "Any type of non-invasive mechanical ventilation procedure that uses positive airway pressure to support spontaneous breathing activity.", "preferredTerm": "Positive Airway Pressure Therapies", "submissionValue": "POSITIVE AIRWAY PRESSURE VENTILATION", "synonyms": ["PAP Therapy"]}, {"conceptId": "C50817", "definition": "Surgery performed with the purpose of replacing a degenerated, calcified, malformed, dysfunctional, etc. pulmonary valve with bioprosthetic, homograft or autograft valve.", "preferredTerm": "Pulmonary Valve Replacement", "submissionValue": "PULMONARY VALVE REPLACEMENT"}, {"conceptId": "C100044", "definition": "Dilation of the valve between the right ventricle and the pulmonary artery of the heart by inflating a balloon.", "preferredTerm": "Pulmonic Valvuloplasty", "submissionValue": "PULMONIC VALVULOPLASTY"}, {"conceptId": "C15279", "definition": "Surgical removal of one or both breasts, including the areola, nipple, axillary lymph nodes, and pectoral muscles.", "preferredTerm": "Radical Mastectomy", "submissionValue": "RADICAL MASTECTOMY"}, {"conceptId": "C15313", "definition": "Use of targeted or whole body radiation to treat a disease.", "preferredTerm": "Radiation Therapy", "submissionValue": "RADIOTHERAPY", "synonyms": ["Radiation Therapy", "Radiotherapy"]}, {"conceptId": "C48600", "definition": "Surgical removal of a structure or organ, which was not completely removed in an earlier attempt.", "preferredTerm": "Re-Excision", "submissionValue": "RE-EXCISION"}, {"conceptId": "C25351", "definition": "Surgical restoration of form and/or function of a body part.", "preferredTerm": "Reconstructive Surgery", "submissionValue": "RECONSTRUCTIVE SURGERY"}, {"conceptId": "C126400", "definition": "Any of the procedures used to supplement or substitute for the blood-filtering function of the kidneys.", "preferredTerm": "Renal Replacement Therapy", "submissionValue": "RENAL REPLACEMENT THERAPY", "synonyms": ["RRT"]}, {"conceptId": "C51623", "definition": "Surgical removal of the right portion of the colon.", "preferredTerm": "Right Colectomy", "submissionValue": "RIGHT COLECTOMY"}, {"conceptId": "C172927", "definition": "A procedure involving the implantation of a mechanical pump which receives blood from the right ventricle and delivers it to the pulmonary artery.", "preferredTerm": "Right Ventricular Assist Device Insertion", "submissionValue": "RIGHT VENTRICULAR ASSIST DEVICE IMPLANTATION", "synonyms": ["RVAD Implantation", "RVAD Insertion"]}, {"conceptId": "C91061", "definition": "Surgical removal of a segment of an organ or partial resection of a gland.", "preferredTerm": "Segmentectomy", "submissionValue": "SEGMENTECTOMY", "synonyms": ["Segmental Resection"]}, {"conceptId": "C15667", "definition": "Surgical removal and examination of the lymph node which is first in receiving the lymphatic drainage of a specified anatomic location.", "preferredTerm": "Sentinel Lymph Node Biopsy", "submissionValue": "SENTINEL LYMPH NODE BIOPSY"}, {"conceptId": "C80439", "definition": "A cardiac catheterization procedure to relieve symptoms in patients with severe obstructive hypertrophic cardiomyopathy. A catheter is used to inject alcohol into a septal artery supplying the heart muscle responsible for the obstruction, destroying the muscle tissue and relieving the obstruction.", "preferredTerm": "Septal Ablation", "submissionValue": "SEPTAL ABLATION"}, {"conceptId": "C51885", "definition": "Surgical removal of thin slices of tissue from a structure or organ, done with a razor blade or scalpel.", "preferredTerm": "Shave Excision", "submissionValue": "SHAVE EXCISION"}, {"conceptId": "C91838", "definition": "Surgical removal of the sigmoid colon.", "preferredTerm": "Sigmoidectomy", "submissionValue": "SIGMOIDECTOMY"}, {"conceptId": "C154791", "definition": "A dual-modality imaging technique that merges data from single-photon emission computed tomography (SPECT) and computed tomography (CT) to provide structural and functional information.", "preferredTerm": "Single Photon Tomography and Computed Tomography Scan", "submissionValue": "SPECT/CT SCAN"}, {"conceptId": "C179786", "definition": "The creation of an artificially induced skin blister by the application of mechanical pressure to an area of skin, causing in vivo separation of the epidermis and dermis.", "preferredTerm": "Suction Blister Technique", "submissionValue": "SUCTION BLISTER TECHNIQUE", "synonyms": ["Suction Blistering"]}, {"conceptId": "C100017", "definition": "A cardiac procedure intended to inhibit atrial fibrillation, in which a series of incisions are made in the atria to block abnormal electrical circuits that contribute to atrial fibrillation.", "preferredTerm": "Surgical Maze Procedure", "submissionValue": "SURGICAL MAZE", "synonyms": ["Cox Maze"]}, {"conceptId": "C15392", "definition": "The removal of excess fluid via needle puncture from the thoracic cavity.", "preferredTerm": "Thoracentesis", "submissionValue": "THORACENTESIS"}, {"conceptId": "C154873", "definition": "A minimally invasive surgical procedure in which video-assisted thoracoscopy is used to remove of a wedge-shaped portion of tissue from a lung lobe.", "preferredTerm": "Thorascopic Wedge Resection of the Lung", "submissionValue": "THORACOSCOPIC WEDGE RESECTION", "synonyms": ["TWR"]}, {"conceptId": "C51924", "definition": "Surgical removal of the entire colon.", "preferredTerm": "Total Colectomy", "submissionValue": "TOTAL COLECTOMY"}, {"conceptId": "C15340", "definition": "Surgical removal of the entire pancreas.", "preferredTerm": "Total Pancreatectomy", "submissionValue": "TOTAL PANCREATECTOMY"}, {"conceptId": "C15341", "definition": "Creation of a surgical opening into the trachea.", "preferredTerm": "Tracheotomy", "submissionValue": "TRACHEOSTOMY", "synonyms": ["Tracheotomy"]}, {"conceptId": "C100022", "definition": "Use of a thin tube to deliver an artificial valve apparatus between the left ventricle of the heart and the aorta.", "preferredTerm": "Transcatheter Aortic Valve Implantation", "submissionValue": "TRANSCATHETER AORTIC VALVE IMPLANT"}, {"conceptId": "C80404", "definition": "A non-invasive cardiac ultrasound performed by placing the transducer on the chest.", "preferredTerm": "Transthoracic Echocardiography", "submissionValue": "TRANSTHORACIC ECHOCARDIOGRAPHY", "synonyms": ["TTE"]}, {"conceptId": "C116651", "definition": "A surgical procedure in which a resectoscope is passed through the urethra into the bladder to diagnose and remove all or part of a bladder tumor.", "preferredTerm": "Transurethral Resection of Bladder Tumor", "submissionValue": "TRANSURETHRAL RESECTION OF BLADDER TUMOR", "synonyms": ["TURBT"]}, {"conceptId": "C51612", "definition": "Surgical removal of the transverse colon.", "preferredTerm": "Transverse Colectomy", "submissionValue": "TRANSVERSE COLECTOMY"}, {"conceptId": "C99935", "definition": "Surgery performed for the purpose of reducing regurgitation of the cardiac valve between the right atrium and right ventricle.", "preferredTerm": "Cardiac Tricuspid Valve Repair", "submissionValue": "TRICUSPID VALVE REPAIR"}, {"conceptId": "C50816", "definition": "Surgery performed with the purpose of replacing a degenerated, calcified, malformed, dysfunctional, etc. tricuspid valve with bioprosthetic, homograft or autograft valve.", "preferredTerm": "Tricuspid Valve Replacement", "submissionValue": "TRICUSPID VALVE REPLACEMENT"}, {"conceptId": "C15640", "definition": "A therapeutic procedure that involves the transplantation of hematopoietic stem cells collected from the umbilical cord or placenta.", "preferredTerm": "Umbilical Cord Blood Transplantation", "submissionValue": "UMBILICAL CORD BLOOD TRANSPLANT"}, {"conceptId": "C80451", "definition": "Cardiac surgical procedure performed for the removal of an aneurysm from the ventricular wall.", "preferredTerm": "Ventricular Aneurysm Resection", "submissionValue": "VENTRICULAR ANEURYSM RESECTION"}, {"conceptId": "C99940", "definition": "Repair of ventricular septum.", "preferredTerm": "Closure of Cardiac Ventricle Septum", "submissionValue": "VENTRICULAR SEPTAL CLOSURE"}, {"conceptId": "C38101", "definition": "A radiographic procedure using the emission of x-rays, a type of penetrating energy wave.", "preferredTerm": "X-Ray Imaging", "submissionValue": "X-RAY", "synonyms": ["Static X-Ray"]}]}