{"_links": {"parentPackage": {"href": "/mdr/ct/packages/sdtmct-2022-09-30", "title": "SDTM Controlled Terminology Package 51 Effective 2022-09-30", "type": "Terminology"}, "priorVersion": {"href": "/mdr/ct/packages/sdtmct-2022-06-24/codelists/C101856", "title": "CDISC SDTM Procedure Urgency Status Terminology", "type": "Code List"}, "rootItem": {"href": "/mdr/root/ct/sdtmct/codelists/C101856", "title": "Version-agnostic anchor resource for codelist C101856", "type": "Root Value Domain"}, "self": {"href": "/mdr/ct/packages/sdtmct-2022-09-30/codelists/C101856", "title": "CDISC SDTM Procedure Urgency Status Terminology", "type": "Code List"}}, "conceptId": "C101856", "definition": "A terminology codelist that describes the degree of urgency for a procedure.", "extensible": "false", "name": "Procedure Urgency Status", "preferredTerm": "CDISC SDTM Procedure Urgency Status Terminology", "submissionValue": "PRURGNCY", "synonyms": ["Procedure Urgency Status"], "terms": [{"conceptId": "C51996", "definition": "Elective procedures can be deferred without increased risk of compromised outcome. Patient's clinical condition is currently stable and has been stable in the days/weeks prior. The clinical situation does not demand that the procedure take place at a specified time.", "preferredTerm": "Elective Surgical Procedure", "submissionValue": "ELECTIVE"}, {"conceptId": "C62648", "definition": "Emergency procedures must be performed as soon as possible because of substantial concerns that delay could lead to death. Clinical situation demands that procedure should be performed immediately or in next available room, even if it means another case must be rescheduled.", "preferredTerm": "Emergency", "submissionValue": "EMERGENCY"}, {"conceptId": "C15359", "definition": "Performing a salvage procedure is the last resort. The clinical situation involves either ongoing life support measures, life support measures for more than 60 seconds during the prior 10 minutes, or unanticipated institution of extracorporeal circulatory support.", "preferredTerm": "Salvage Therapy", "submissionValue": "SALVAGE"}, {"conceptId": "C100031", "definition": "Deferring an urgent procedure increases risk of adverse outcome or clinical deterioration. Clinical situation warrants performing urgent procedures during the current episode of care to avoid compromising patient safety.", "preferredTerm": "Urgent Procedure", "submissionValue": "URGENT"}]}