{"_links": {"parentPackage": {"href": "/mdr/ct/packages/sdtmct-2022-09-30", "title": "SDTM Controlled Terminology Package 51 Effective 2022-09-30", "type": "Terminology"}, "priorVersion": {"href": "/mdr/ct/packages/sdtmct-2022-06-24/codelists/C101851", "title": "CDISC SDTM Location of Most Severe Stenosis Within a Graft Terminology", "type": "Code List"}, "rootItem": {"href": "/mdr/root/ct/sdtmct/codelists/C101851", "title": "Version-agnostic anchor resource for codelist C101851", "type": "Root Value Domain"}, "self": {"href": "/mdr/ct/packages/sdtmct-2022-09-30/codelists/C101851", "title": "CDISC SDTM Location of Most Severe Stenosis Within a Graft Terminology", "type": "Code List"}}, "conceptId": "C101851", "definition": "Terminology used to describe the part of the graft that is most severely stenotic.", "extensible": "false", "name": "Location of Most Severe Stenosis Within a Graft", "preferredTerm": "CDISC SDTM Location of Most Severe Stenosis Within a Graft Terminology", "submissionValue": "GRSTNLOC", "synonyms": ["Location of Most Severe Stenosis Within a Graft"], "terms": [{"conceptId": "C99915", "definition": "The connection where the graft joins the aorta usually less than or equal to 3 mm from insertion point.", "preferredTerm": "Aortic Anastomosis of Graft", "submissionValue": "AORTIC ANASTOMOSIS OF THE GRAFT"}, {"conceptId": "C99918", "definition": "The portion of the graft that lies between its anastomoses.", "preferredTerm": "Body of Graft", "submissionValue": "BODY OF THE GRAFT"}, {"conceptId": "C80476", "definition": "The connection where the graft joins the coronary artery usually less than or equal to 3 mm from insertion point.", "preferredTerm": "Coronary Graft Anastomoses", "submissionValue": "CORONARY ANASTOMOSIS OF THE GRAFT", "synonyms": ["Coronary Graft Anastomoses"]}]}