{"_links": {"parentPackage": {"href": "/mdr/ct/packages/sdtmct-2022-09-30", "title": "SDTM Controlled Terminology Package 51 Effective 2022-09-30", "type": "Terminology"}, "priorVersion": {"href": "/mdr/ct/packages/sdtmct-2022-06-24/codelists/C101823", "title": "CDISC Questionnaire SF36 v1.0 Acute Test Code Terminology", "type": "Code List"}, "rootItem": {"href": "/mdr/root/ct/sdtmct/codelists/C101823", "title": "Version-agnostic anchor resource for codelist C101823", "type": "Root Value Domain"}, "self": {"href": "/mdr/ct/packages/sdtmct-2022-09-30/codelists/C101823", "title": "CDISC Questionnaire SF36 v1.0 Acute Test Code Terminology", "type": "Code List"}}, "conceptId": "C101823", "definition": "The Short Form 36 Health Survey Acute, US Version 1.0 test code.", "extensible": "false", "name": "The Short Form 36 Health Survey Acute, US Version 1.0 Questionnaire Test Code", "preferredTerm": "CDISC Questionnaire SF36 v1.0 Acute Test Code Terminology", "submissionValue": "SF362TC", "synonyms": ["The Short Form 36 Health Survey Acute, US Version 1.0 Questionnaire Test Code"], "terms": [{"conceptId": "C102125", "definition": "The Short Form 36 Health Survey Acute, US Version 1.0 - In general, would you say your health is.", "preferredTerm": "SF-36 v1.0 Acute - In General You Say Your Health Is", "submissionValue": "SF36201", "synonyms": ["SF362-In General You Say Your Health Is"]}, {"conceptId": "C102126", "definition": "The Short Form 36 Health Survey Acute, US Version 1.0 - Compared to one week ago, how would you rate your health in general now?", "preferredTerm": "SF-36 v1.0 Acute - Comp Week Ago Rate Gen Health Now", "submissionValue": "SF36202", "synonyms": ["SF362-Comp Week Ago Rate Gen Health Now"]}, {"conceptId": "C102127", "definition": "The Short Form 36 Health Survey Acute, US Version 1.0 - How much does your health now limit you in - vigorous activities, such as running, lifting heavy objects, participating in strenuous sports.", "preferredTerm": "SF-36 v1.0 Acute - Limit Vigorous Activities", "submissionValue": "SF36203A", "synonyms": ["SF362-Limit Vigorous Activities"]}, {"conceptId": "C102128", "definition": "The Short Form 36 Health Survey Acute, US Version 1.0 - How much does your health now limit you in - moderate activities, such as moving a table, pushing a vacuum cleaner, bowling, or playing golf.", "preferredTerm": "SF-36 v1.0 Acute - Limit Moderate Activities", "submissionValue": "SF36203B", "synonyms": ["SF362-Limit Moderate Activities"]}, {"conceptId": "C102129", "definition": "The Short Form 36 Health Survey Acute, US Version 1.0 - How much does your health now limit you in - lifting or carrying groceries.", "preferredTerm": "SF-36 v1.0 Acute - Limit Lifting or Carrying", "submissionValue": "SF36203C", "synonyms": ["SF362-Limit Lifting or Carrying"]}, {"conceptId": "C102130", "definition": "The Short Form 36 Health Survey Acute, US Version 1.0 - How much does your health now limit you in - climbing several flights of stairs.", "preferredTerm": "SF-36 v1.0 Acute - Limit Climbing Several Flights", "submissionValue": "SF36203D", "synonyms": ["SF362-Limit Climbing Several Flights"]}, {"conceptId": "C102131", "definition": "The Short Form 36 Health Survey Acute, US Version 1.0 - How much does your health now limit you in - climbing one flight of stairs.", "preferredTerm": "SF-36 v1.0 Acute - Limit Climbing One Flight Stairs", "submissionValue": "SF36203E", "synonyms": ["SF362-Limit Climbing One Flight Stairs"]}, {"conceptId": "C102132", "definition": "The Short Form 36 Health Survey Acute, US Version 1.0 - How much does your health now limit you in - bending, kneeling, or stooping.", "preferredTerm": "SF-36 v1.0 Acute - Limit Bending/Kneeling/Stooping", "submissionValue": "SF36203F", "synonyms": ["SF362-Limit Bending/Kneeling/Stooping"]}, {"conceptId": "C102133", "definition": "The Short Form 36 Health Survey Acute, US Version 1.0 - How much does your health now limit you in - walking more than a mile.", "preferredTerm": "SF-36 v1.0 Acute - Limit Walking More Than a Mile", "submissionValue": "SF36203G", "synonyms": ["SF362-Limit Walking More Than a Mile"]}, {"conceptId": "C102134", "definition": "The Short Form 36 Health Survey Acute, US Version 1.0 - How much does your health now limit you in - walking several blocks.", "preferredTerm": "SF-36 v1.0 Acute - Limit Walking Several Blocks", "submissionValue": "SF36203H", "synonyms": ["SF362-Limit Walking Several Blocks"]}, {"conceptId": "C102135", "definition": "The Short Form 36 Health Survey Acute, US Version 1.0 - How much does your health now limit you in - walking one block.", "preferredTerm": "SF-36 v1.0 Acute - Limit Walking One Block", "submissionValue": "SF36203I", "synonyms": ["SF362-Limit Walking One Block"]}, {"conceptId": "C102136", "definition": "The Short Form 36 Health Survey Acute, US Version 1.0 - How much does your health now limit you in - bathing or dressing yourself.", "preferredTerm": "SF-36 v1.0 Acute - Limit Bathing or Dressing Yourself", "submissionValue": "SF36203J", "synonyms": ["SF362-Limit Bathing or Dressing Yourself"]}, {"conceptId": "C102137", "definition": "The Short Form 36 Health Survey Acute, US Version 1.0 (SF36 V1.0 ACUTE) -During the past week, have you had any of the following problems with your work or other regular daily activities as a result of your physical health - cut down on the amount of time you spent on work or other activities.", "preferredTerm": "SF-36 v1.0 Acute - Physical: Cut Down Time on Work", "submissionValue": "SF36204A", "synonyms": ["SF362-Physical: Cut Down Time on Work"]}, {"conceptId": "C102138", "definition": "The Short Form 36 Health Survey Acute, US Version 1.0 - During the past week, have you had any of the following problems with your work or other regular daily activities as a result of your physical health - accomplished less than you would like.", "preferredTerm": "SF-36 v1.0 Acute - Physical: Accomplished Less", "submissionValue": "SF36204B", "synonyms": ["SF362-Physical: Accomplished Less"]}, {"conceptId": "C102139", "definition": "The Short Form 36 Health Survey Acute, US Version 1.0 - During the past week, have you had any of the following problems with your work or other regular daily activities as a result of your physical health - were limited in the kind of work or other activities.", "preferredTerm": "SF-36 v1.0 Acute - Physical: Limited Kind of Work", "submissionValue": "SF36204C", "synonyms": ["SF362-Physical: Limited Kind of Work"]}, {"conceptId": "C102140", "definition": "The Short Form 36 Health Survey Acute, US Version 1.0 - During the past week, have you had any of the following problems with your work or other regular daily activities as a result of your physical health - had difficulty performing the work or other activities (for example, it took extra effort).", "preferredTerm": "SF-36 v1.0 Acute - Physical: Difficulty Perform Work", "submissionValue": "SF36204D", "synonyms": ["SF362-Physical: Difficulty Perform Work"]}, {"conceptId": "C102141", "definition": "The Short Form 36 Health Survey Acute, US Version 1.0 - During the past week, have you had any of the following problems with your work or other regular daily activities as a result of any emotional problems (such as feeling depressed or anxious) - cut down on the amount of time you spent on work or other activities.", "preferredTerm": "SF-36 v1.0 Acute - Emotional: Cut Down Time on Work", "submissionValue": "SF36205A", "synonyms": ["SF362-Emotional: Cut Down Time on Work"]}, {"conceptId": "C102142", "definition": "The Short Form 36 Health Survey Acute, US Version 1.0 - During the past week, have you had any of the following problems with your work or other regular daily activities as a result of any emotional problems (such as feeling depressed or anxious) - accomplished less than you would like.", "preferredTerm": "SF-36 v1.0 Acute - Emotional: Accomplished Less", "submissionValue": "SF36205B", "synonyms": ["SF362-Emotional: Accomplished Less"]}, {"conceptId": "C102143", "definition": "The Short Form 36 Health Survey Acute, US Version 1.0 - During the past week, have you had any of the following problems with your work or other regular daily activities as a result of any emotional problems (such as feeling depressed or anxious) - did work or other activities less carefully than usual.", "preferredTerm": "SF-36 v1.0 Acute - Emotional: Did Work Less Carefully", "submissionValue": "SF36205C", "synonyms": ["SF362-Emotional: Did Work Less Carefully"]}, {"conceptId": "C102144", "definition": "The Short Form 36 Health Survey Acute, US Version 1.0 - During the past week, to what extent has your physical health or emotional problems interfered with your normal social activities with family, friends, neighbors, or groups?", "preferredTerm": "SF-36 v1.0 Acute - Extent Phys/Emotional Interfered", "submissionValue": "SF36206", "synonyms": ["SF362-Extent Phys/Emotional Interfered"]}, {"conceptId": "C102145", "definition": "The Short Form 36 Health Survey Acute, US Version 1.0 - How much bodily pain have you had during the past week?", "preferredTerm": "SF-36 v1.0 Acute - How Much Bodily Pain Have You Had", "submissionValue": "SF36207", "synonyms": ["SF362-How Much Bodily Pain Have You Had"]}, {"conceptId": "C102146", "definition": "The Short Form 36 Health Survey Acute, US Version 1.0 - During the past week, how much did pain interfere with your normal work (including both work outside the home and housework)?", "preferredTerm": "SF-36 v1.0 Acute - Pain Interfere With Normal Work", "submissionValue": "SF36208", "synonyms": ["SF362-Pain Interfere With Normal Work"]}, {"conceptId": "C102147", "definition": "The Short Form 36 Health Survey Acute, US Version 1.0 - Please give the one answer that comes closest to the way you have been feeling. How much of the time during the past week - did you feel full of pep.", "preferredTerm": "SF-36 v1.0 Acute - Did You Feel Full of Pep", "submissionValue": "SF36209A", "synonyms": ["SF362-Did You Feel Full of Pep"]}, {"conceptId": "C102148", "definition": "The Short Form 36 Health Survey Acute, US Version 1.0 - Please give the one answer that comes closest to the way you have been feeling. How much of the time during the past week - have you been a very nervous person.", "preferredTerm": "SF-36 v1.0 Acute - Have You Been Very Nervous Person", "submissionValue": "SF36209B", "synonyms": ["SF362-Have You Been Very Nervous Person"]}, {"conceptId": "C102149", "definition": "The Short Form 36 Health Survey Acute, US Version 1.0 - Please give the one answer that comes closest to the way you have been feeling. How much of the time during the past week - have you felt so down in the dumps that nothing could cheer you up.", "preferredTerm": "SF-36 v1.0 Acute - Felt Down Nothing Cheer You Up", "submissionValue": "SF36209C", "synonyms": ["SF362-Felt Down Nothing Cheer You Up"]}, {"conceptId": "C102150", "definition": "The Short Form 36 Health Survey Acute, US Version 1.0 - Please give the one answer that comes closest to the way you have been feeling. How much of the time during the past week - have you felt calm and peaceful.", "preferredTerm": "SF-36 v1.0 Acute - Have You Felt Calm and Peaceful", "submissionValue": "SF36209D", "synonyms": ["SF362-Have You Felt Calm and Peaceful"]}, {"conceptId": "C102151", "definition": "The Short Form 36 Health Survey Acute, US Version 1.0 - Please give the one answer that comes closest to the way you have been feeling. How much of the time during the past week - did you have a lot of energy.", "preferredTerm": "SF-36 v1.0 Acute - Did You Have a Lot of Energy", "submissionValue": "SF36209E", "synonyms": ["SF362-Did You Have a Lot of Energy"]}, {"conceptId": "C102152", "definition": "The Short Form 36 Health Survey Acute, US Version 1.0 - Please give the one answer that comes closest to the way you have been feeling. How much of the time during the past week - have you felt downhearted and blue.", "preferredTerm": "SF-36 v1.0 Acute - You Felt Downhearted and Blue", "submissionValue": "SF36209F", "synonyms": ["SF362-You Felt Downhearted and Blue"]}, {"conceptId": "C102153", "definition": "The Short Form 36 Health Survey Acute, US Version 1.0 - Please give the one answer that comes closest to the way you have been feeling. How much of the time during the past week - did you feel worn out.", "preferredTerm": "SF-36 v1.0 Acute - Did You Feel Worn Out", "submissionValue": "SF36209G", "synonyms": ["SF362-Did You Feel Worn Out"]}, {"conceptId": "C102154", "definition": "The Short Form 36 Health Survey Acute, US Version 1.0 - Please give the one answer that comes closest to the way you have been feeling. How much of the time during the past week - have you been a happy person.", "preferredTerm": "SF-36 v1.0 Acute - Have You Been a Happy Person", "submissionValue": "SF36209H", "synonyms": ["SF362-Have You Been a Happy Person"]}, {"conceptId": "C102155", "definition": "The Short Form 36 Health Survey Acute, US Version 1.0 - Please give the one answer that comes closest to the way you have been feeling. How much of the time during the past week - did you feel tired.", "preferredTerm": "SF-36 v1.0 Acute - Did You Feel Tired", "submissionValue": "SF36209I", "synonyms": ["SF362-Did You Feel Tired"]}, {"conceptId": "C102156", "definition": "The Short Form 36 Health Survey Acute, US Version 1.0 - During the past week, how much of the time has your physical health or emotional problems interfered with your social activities (like visiting friends, relatives, etc.)?", "preferredTerm": "SF-36 v1.0 Acute - Time Phys/Emotional Interfered", "submissionValue": "SF36210", "synonyms": ["SF362-Time Phys/Emotional Interfered"]}, {"conceptId": "C102157", "definition": "The Short Form 36 Health Survey Acute, US Version 1.0 - How TRUE or FALSE is the following statement for you - I seem to get sick a little easier than other people.", "preferredTerm": "SF-36 v1.0 Acute - Get Sick Little Easier Than Other", "submissionValue": "SF36211A", "synonyms": ["SF362-Get Sick Little Easier Than Other"]}, {"conceptId": "C102158", "definition": "The Short Form 36 Health Survey Acute, US Version 1.0 - How TRUE or FALSE is the following statement for you - I am as healthy as anybody I know.", "preferredTerm": "SF-36 v1.0 Acute - I Am as Healthy as Anybody I Know", "submissionValue": "SF36211B", "synonyms": ["SF362-I Am as Healthy as Anybody I Know"]}, {"conceptId": "C102159", "definition": "The Short Form 36 Health Survey Acute, US Version 1.0 - How TRUE or FALSE is the following statement for you - I expect my health to get worse.", "preferredTerm": "SF-36 v1.0 Acute - I Expect My Health to Get Worse", "submissionValue": "SF36211C", "synonyms": ["SF362-I Expect My Health to Get Worse"]}, {"conceptId": "C102160", "definition": "The Short Form 36 Health Survey Acute, US Version 1.0 - How TRUE or FALSE is the following statement for you - my health is excellent", "preferredTerm": "SF-36 v1.0 Acute - My Health is Excellent", "submissionValue": "SF36211D", "synonyms": ["SF362-My Health is Excellent"]}, {"conceptId": "C176121", "definition": "The Short Form 36 Health Survey Acute, US Version 1.0 - Physical functioning 0-100 score.", "preferredTerm": "SF-36 v1.0 Acute - Physical Functioning 0-100 Score", "submissionValue": "SF36212", "synonyms": ["SF362-Physical Functioning 0-100 Score"]}, {"conceptId": "C176122", "definition": "The Short Form 36 Health Survey Acute, US Version 1.0 - Role physical 0-100 score.", "preferredTerm": "SF-36 v1.0 Acute - Role Physical 0-100 Score", "submissionValue": "SF36213", "synonyms": ["SF362-Role Physical 0-100 Score"]}, {"conceptId": "C176123", "definition": "The Short Form 36 Health Survey Acute, US Version 1.0 - Bodily pain 0-100 score.", "preferredTerm": "SF-36 v1.0 Acute - Bodily Pain 0-100 Score", "submissionValue": "SF36214", "synonyms": ["SF362-Bodily Pain 0-100 Score"]}, {"conceptId": "C176124", "definition": "The Short Form 36 Health Survey Acute, US Version 1.0 - General health 0-100 score.", "preferredTerm": "SF-36 v1.0 Acute - General Health 0-100 Score", "submissionValue": "SF36215", "synonyms": ["SF362-General Health 0-100 Score"]}, {"conceptId": "C176125", "definition": "The Short Form 36 Health Survey Acute, US Version 1.0 - Vitality 0-100 score.", "preferredTerm": "SF-36 v1.0 Acute - Vitality 0-100 Score", "submissionValue": "SF36216", "synonyms": ["SF362-Vitality 0-100 Score"]}, {"conceptId": "C176126", "definition": "The Short Form 36 Health Survey Acute, US Version 1.0 - Social functioning 0-100 score.", "preferredTerm": "SF-36 v1.0 Acute - Social Functioning 0-100 Score", "submissionValue": "SF36217", "synonyms": ["SF362-Social Functioning 0-100 Score"]}, {"conceptId": "C176127", "definition": "The Short Form 36 Health Survey Acute, US Version 1.0 - Role emotional 0-100 score.", "preferredTerm": "SF-36 v1.0 Acute - Role Emotional 0-100 Score", "submissionValue": "SF36218", "synonyms": ["SF362-Role Emotional 0-100 Score"]}, {"conceptId": "C176128", "definition": "The Short Form 36 Health Survey Acute, US Version 1.0 - Mental health 0-100 score.", "preferredTerm": "SF-36 v1.0 Acute - Mental Health 0-100 Score", "submissionValue": "SF36219", "synonyms": ["SF362-Mental Health 0-100 Score"]}, {"conceptId": "C176129", "definition": "The Short Form 36 Health Survey Acute, US Version 1.0 - Phys functioning norm-based score.", "preferredTerm": "SF-36 v1.0 Acute - Phys Functioning Norm-Based Score", "submissionValue": "SF36220", "synonyms": ["SF362-Phys Functioning Norm-Based Score"]}, {"conceptId": "C176130", "definition": "The Short Form 36 Health Survey Acute, US Version 1.0 - Role physical norm-based score.", "preferredTerm": "SF-36 v1.0 Acute - Role Physical Norm-Based Score", "submissionValue": "SF36221", "synonyms": ["SF362-Role Physical Norm-Based Score"]}, {"conceptId": "C176131", "definition": "The Short Form 36 Health Survey Acute, US Version 1.0 - Bodily pain norm-based score.", "preferredTerm": "SF-36 v1.0 Acute - Bodily Pain Norm-Based Score", "submissionValue": "SF36222", "synonyms": ["SF362-Bodily Pain Norm-Based Score"]}, {"conceptId": "C176132", "definition": "The Short Form 36 Health Survey Acute, US Version 1.0 - General health norm-based score.", "preferredTerm": "SF-36 v1.0 Acute - General Health Norm-Based Score", "submissionValue": "SF36223", "synonyms": ["SF362-General Health Norm-Based Score"]}, {"conceptId": "C176133", "definition": "The Short Form 36 Health Survey Acute, US Version 1.0 - Vitality norm-based score.", "preferredTerm": "SF-36 v1.0 Acute - Vitality Norm-Based Score", "submissionValue": "SF36224", "synonyms": ["SF362-Vitality Norm-Based Score"]}, {"conceptId": "C176134", "definition": "The Short Form 36 Health Survey Acute, US Version 1.0 - Social function norm-based score.", "preferredTerm": "SF-36 v1.0 Acute - Social Function Norm-Based Score", "submissionValue": "SF36225", "synonyms": ["SF362-Social Function Norm-Based Score"]}, {"conceptId": "C176135", "definition": "The Short Form 36 Health Survey Acute, US Version 1.0 - Role emotional norm-based score.", "preferredTerm": "SF-36 v1.0 Acute - Role Emotional Norm-Based Score", "submissionValue": "SF36226", "synonyms": ["SF362-Role Emotional Norm-Based Score"]}, {"conceptId": "C176136", "definition": "The Short Form 36 Health Survey Acute, US Version 1.0 - Mental health norm-based score.", "preferredTerm": "SF-36 v1.0 Acute - Mental Health Norm-Based Score", "submissionValue": "SF36227", "synonyms": ["SF362-Mental Health Norm-Based Score"]}, {"conceptId": "C176137", "definition": "The Short Form 36 Health Survey Acute, US Version 1.0 - Physical component score.", "preferredTerm": "SF-36 v1.0 Acute - Physical Component Score", "submissionValue": "SF36228", "synonyms": ["SF362-Physical Component Score"]}, {"conceptId": "C176138", "definition": "The Short Form 36 Health Survey Acute, US Version 1.0 - Mental component score.", "preferredTerm": "SF-36 v1.0 Acute - Mental Component Score", "submissionValue": "SF36229", "synonyms": ["SF362-Mental Component Score"]}, {"conceptId": "C176139", "definition": "The Short Form 36 Health Survey Acute, US Version 1.0 - 6D (utility index) score.", "preferredTerm": "SF-36 v1.0 Acute - SF-6D (Utility Index) Score", "submissionValue": "SF36230", "synonyms": ["SF362-SF-6D (Utility Index) Score"]}, {"conceptId": "C176140", "definition": "The Short Form 36 Health Survey Acute, US Version 1.0 - 6D_R2 (util index rel 2) score.", "preferredTerm": "SF-36 v1.0 Acute - SF-6D_R2 (Util Index Rel 2) Score", "submissionValue": "SF36231", "synonyms": ["SF362-SF-6D_R2 (Util Index Rel 2) Score"]}, {"conceptId": "C176141", "definition": "The Short Form 36 Health Survey Acute, US Version 1.0 - Response consistency score.", "preferredTerm": "SF-36 v1.0 Acute - Response Consistency Score", "submissionValue": "SF36232", "synonyms": ["SF362-Response Consistency Score"]}]}