{"_links": {"parentPackage": {"href": "/mdr/ct/packages/sdtmct-2022-09-30", "title": "SDTM Controlled Terminology Package 51 Effective 2022-09-30", "type": "Terminology"}, "priorVersion": {"href": "/mdr/ct/packages/sdtmct-2022-06-24/codelists/C101809", "title": "CDISC Clinical Classification BARS Test Code Terminology", "type": "Code List"}, "rootItem": {"href": "/mdr/root/ct/sdtmct/codelists/C101809", "title": "Version-agnostic anchor resource for codelist C101809", "type": "Root Value Domain"}, "self": {"href": "/mdr/ct/packages/sdtmct-2022-09-30/codelists/C101809", "title": "CDISC Clinical Classification BARS Test Code Terminology", "type": "Code List"}}, "conceptId": "C101809", "definition": "Barnes Akathisia Rating Scale test code.", "extensible": "false", "name": "Barnes Akathisia Rating Scale Clinical Classification Test Code", "preferredTerm": "CDISC Clinical Classification BARS Test Code Terminology", "submissionValue": "BARS01TC", "synonyms": ["Barnes Akathisia Rating Scale Clinical Classification Test Code"], "terms": [{"conceptId": "C102046", "definition": "Barnes Akathisia Rating Scale - Objective.", "preferredTerm": "BARS - Objective", "submissionValue": "BARS0101", "synonyms": ["BARS01-Objective"]}, {"conceptId": "C102047", "definition": "Barnes Akathisia Rating Scale - Subjective, awareness of restlessness.", "preferredTerm": "BARS - Subjective, Awareness", "submissionValue": "BARS0102", "synonyms": ["BARS01-Subjective, Awareness"]}, {"conceptId": "C102048", "definition": "Barnes Akathisia Rating Scale - Subjective, distress related to restlessness.", "preferredTerm": "BARS - Subjective, Distress", "submissionValue": "BARS0103", "synonyms": ["BARS01-Subjective, Distress"]}, {"conceptId": "C102049", "definition": "Barnes Akathisia Rating Scale - Global clinical assessment of akathisia.", "preferredTerm": "BARS - Global Clinical Assessment", "submissionValue": "BARS0104", "synonyms": ["BARS01-Global Clinical Assessment"]}]}