{"_links": {"parentPackage": {"href": "/mdr/ct/packages/sdtmct-2022-09-30", "title": "SDTM Controlled Terminology Package 51 Effective 2022-09-30", "type": "Terminology"}, "priorVersion": {"href": "/mdr/ct/packages/sdtmct-2022-06-24/codelists/C103488", "title": "CDISC Questionnaire UPS Test Name Terminology", "type": "Code List"}, "rootItem": {"href": "/mdr/root/ct/sdtmct/codelists/C103488", "title": "Version-agnostic anchor resource for codelist C103488", "type": "Root Value Domain"}, "self": {"href": "/mdr/ct/packages/sdtmct-2022-09-30/codelists/C103488", "title": "CDISC Questionnaire UPS Test Name Terminology", "type": "Code List"}}, "conceptId": "C103488", "definition": "Urgency Perception Scale test name.", "extensible": "false", "name": "Urgency Perception Scale Questionnaire Test Name", "preferredTerm": "CDISC Questionnaire UPS Test Name Terminology", "submissionValue": "UPS01TN", "synonyms": ["Urgency Perception Scale Questionnaire Test Name"], "terms": [{"conceptId": "C103761", "definition": "Urgency Perception Scale - Which of the following would typically describe your experience when you have a desire to urinate.", "preferredTerm": "UPS - Describe Your Experience When You Desire to Urinate", "submissionValue": "UPS01-Describe Your Desire to Urinate", "synonyms": ["UPS01-Describe Your Desire to Urinate"]}]}