{"_links": {"parentPackage": {"href": "/mdr/ct/packages/sdtmct-2022-09-30", "title": "SDTM Controlled Terminology Package 51 Effective 2022-09-30", "type": "Terminology"}, "priorVersion": {"href": "/mdr/ct/packages/sdtmct-2022-06-24/codelists/C106669", "title": "CDISC Questionnaire MMRC Test Code Terminology", "type": "Code List"}, "rootItem": {"href": "/mdr/root/ct/sdtmct/codelists/C106669", "title": "Version-agnostic anchor resource for codelist C106669", "type": "Root Value Domain"}, "self": {"href": "/mdr/ct/packages/sdtmct-2022-09-30/codelists/C106669", "title": "CDISC Questionnaire MMRC Test Code Terminology", "type": "Code List"}}, "conceptId": "C106669", "definition": "Modified Medical Research Council Dyspnea Scale test code.", "extensible": "false", "name": "Modified Medical Research Council Dyspnea Scale Questionnaire Test Code", "preferredTerm": "CDISC Questionnaire MMRC Test Code Terminology", "submissionValue": "MMRC01TC", "synonyms": ["Modified Medical Research Council Dyspnea Scale Questionnaire Test Code"], "terms": [{"conceptId": "C106852", "definition": "Modified Medical Research Council Dyspnea Scale - Description of breathlessness.", "preferredTerm": "MMRC - Description of Level of Breathlessness", "submissionValue": "MMRC0101", "synonyms": ["MMRC01-Description of Breathlessness"]}]}