{"_links": {"parentPackage": {"href": "/mdr/ct/packages/sdtmct-2022-09-30", "title": "SDTM Controlled Terminology Package 51 Effective 2022-09-30", "type": "Terminology"}, "priorVersion": {"href": "/mdr/ct/packages/sdtmct-2022-06-24/codelists/C111347", "title": "CDISC Questionnaire MRS Test Name Terminology", "type": "Code List"}, "rootItem": {"href": "/mdr/root/ct/sdtmct/codelists/C111347", "title": "Version-agnostic anchor resource for codelist C111347", "type": "Root Value Domain"}, "self": {"href": "/mdr/ct/packages/sdtmct-2022-09-30/codelists/C111347", "title": "CDISC Questionnaire MRS Test Name Terminology", "type": "Code List"}}, "conceptId": "C111347", "definition": "Modified Rankin Scale test name.", "extensible": "false", "name": "Modified Rankin Scale Questionnaire Test Name", "preferredTerm": "CDISC Questionnaire MRS Test Name Terminology", "submissionValue": "MRS01TN", "synonyms": ["Modified Rankin Scale Questionnaire Test Name"], "terms": [{"conceptId": "C111520", "definition": "Modified Rankin Scale - Modified Rankin Scale Score.", "preferredTerm": "MRS - Modified Rankin Scale Score", "submissionValue": "MRS01-Modified Rankin Scale Score", "synonyms": ["MRS01-Modified Rankin Scale Score"]}]}