{"_links": {"parentPackage": {"href": "/mdr/ct/packages/sdtmct-2022-09-30", "title": "SDTM Controlled Terminology Package 51 Effective 2022-09-30", "type": "Terminology"}, "priorVersion": {"href": "/mdr/ct/packages/sdtmct-2022-06-24/codelists/C112037", "title": "CDISC SDTM Device Tracking and Disposition Event Dictionary Derived Term Terminology", "type": "Code List"}, "rootItem": {"href": "/mdr/root/ct/sdtmct/codelists/C112037", "title": "Version-agnostic anchor resource for codelist C112037", "type": "Root Value Domain"}, "self": {"href": "/mdr/ct/packages/sdtmct-2022-09-30/codelists/C112037", "title": "CDISC SDTM Device Tracking and Disposition Event Dictionary Derived Term Terminology", "type": "Code List"}}, "conceptId": "C112037", "definition": "A terminology codelist based on the standardized or preprinted name of the device tracking and disposition event that occurs.", "extensible": "true", "name": "Device Tracking and Disposition Event Dictionary Derived Term", "preferredTerm": "CDISC SDTM Device Tracking and Disposition Event Dictionary Derived Term Terminology", "submissionValue": "DTDECOD", "synonyms": ["Device Tracking and Disposition Event Dictionary Derived Term"], "terms": [{"conceptId": "C101231", "definition": "The act of instantiating, positioning or activating a medical device inside of the body.", "preferredTerm": "Medical Device Deployment", "submissionValue": "DEPLOYED"}, {"conceptId": "C112270", "definition": "A finding referring to a product that has been demolished.", "preferredTerm": "Destroyed Medical Device", "submissionValue": "DESTROYED"}, {"conceptId": "C114146", "definition": "A status indicating that a device is removed from a surgically or naturally formed cavity of the human body.", "preferredTerm": "Explanted Medical Device", "submissionValue": "EXPLANTED"}, {"conceptId": "C80457", "definition": "A status indicating that a device is placed into a surgically or naturally formed cavity of the human body.", "preferredTerm": "Implanted Medical Device", "submissionValue": "IMPLANTED"}, {"conceptId": "C117758", "definition": "A status indicating that a device was introduced to the subject for use but did not meet its intended goal and was removed. (NCI)", "preferredTerm": "Device Intended But Not Used", "submissionValue": "INTENDED BUT NOT USED"}, {"conceptId": "C112329", "definition": "A finding referring to a product that is no longer held or possessed; incapable of being recovered or regained.", "preferredTerm": "Lost Medical Device", "submissionValue": "LOST"}, {"conceptId": "C25639", "definition": "Coming into possession of or acting as the receptacle or recipient of an item conveyed by an intermediary to the intended destination, from a sender.", "preferredTerm": "Receive", "submissionValue": "RECEIVED"}, {"conceptId": "C40353", "definition": "Being transported or conveyed by an intermediary to a destination, from the sender to the intended receiver.", "preferredTerm": "Shipping", "submissionValue": "SHIPPED"}]}