{"_links": {"parentPackage": {"href": "/mdr/ct/packages/sdtmct-2022-09-30", "title": "SDTM Controlled Terminology Package 51 Effective 2022-09-30", "type": "Terminology"}, "priorVersion": {"href": "/mdr/ct/packages/sdtmct-2022-06-24/codelists/C113858", "title": "CDISC Questionnaire Modified Fatigue Impact Scale Test Code Terminology", "type": "Code List"}, "rootItem": {"href": "/mdr/root/ct/sdtmct/codelists/C113858", "title": "Version-agnostic anchor resource for codelist C113858", "type": "Root Value Domain"}, "self": {"href": "/mdr/ct/packages/sdtmct-2022-09-30/codelists/C113858", "title": "CDISC Questionnaire Modified Fatigue Impact Scale Test Code Terminology", "type": "Code List"}}, "conceptId": "C113858", "definition": "Modified Fatigue Impact Scale test code.", "extensible": "false", "name": "Modified Fatigue Impact Scale Questionnaire Test Code", "preferredTerm": "CDISC Questionnaire Modified Fatigue Impact Scale Test Code Terminology", "submissionValue": "MFIS01TC", "synonyms": ["Modified Fatigue Impact Scale Questionnaire Test Code"], "terms": [{"conceptId": "C113967", "definition": "Modified Fatigue Impact Scale - Because of my fatigue during the past 4 weeks I have been less alert.", "preferredTerm": "MFIS - Have Been Less Alert", "submissionValue": "MFIS0101", "synonyms": ["MFIS01-I Have Been Less Alert"]}, {"conceptId": "C113968", "definition": "Modified Fatigue Impact Scale - Because of my fatigue during the past 4 weeks I have had difficulty paying attention for long periods of time.", "preferredTerm": "MFIS - Have Difficulty Paying Attention for Long Time", "submissionValue": "MFIS0102", "synonyms": ["MFIS01-Have Difficulty Paying Attention"]}, {"conceptId": "C113969", "definition": "Modified Fatigue Impact Scale - Because of my fatigue during the past 4 weeks I have been unable to think clearly.", "preferredTerm": "MFIS - Unable to Think Clearly", "submissionValue": "MFIS0103", "synonyms": ["MFIS01-Have Been Unable to Think Clearly"]}, {"conceptId": "C113970", "definition": "Modified Fatigue Impact Scale - Because of my fatigue during the past 4 weeks I have been clumsy and uncoordinated.", "preferredTerm": "MFIS - Have Been Clumsy and Uncoordinated", "submissionValue": "MFIS0104", "synonyms": ["MFIS01-Been Clumsy and Uncoordinated"]}, {"conceptId": "C113971", "definition": "Modified Fatigue Impact Scale - Because of my fatigue during the past 4 weeks I have been forgetful.", "preferredTerm": "MFIS - Have Been Forgetful", "submissionValue": "MFIS0105", "synonyms": ["MFIS01-I Have Been Forgetful"]}, {"conceptId": "C113972", "definition": "Modified Fatigue Impact Scale - Because of my fatigue during the past 4 weeks I have had to pace myself in my physical activities.", "preferredTerm": "MFIS - Pace Myself in Physical Activities", "submissionValue": "MFIS0106", "synonyms": ["MFIS01-Pace Myself in Physical Activity"]}, {"conceptId": "C113973", "definition": "Modified Fatigue Impact Scale - Because of my fatigue during the past 4 weeks I have been less motivated to do anything that requires physical effort.", "preferredTerm": "MFIS - Less Motivated to Do Anything That Requires Physical Effort", "submissionValue": "MFIS0107", "synonyms": ["MFIS01-Less Motivated, Physical Effort"]}, {"conceptId": "C113974", "definition": "Modified Fatigue Impact Scale - Because of my fatigue during the past 4 weeks I have been less motivated to participate in social activities.", "preferredTerm": "MFIS - Less Motivated to Participate in Social Activities", "submissionValue": "MFIS0108", "synonyms": ["MFIS01-Less Motivated, Social Activity"]}, {"conceptId": "C113975", "definition": "Modified Fatigue Impact Scale - Because of my fatigue during the past 4 weeks I have been limited in my ability to do things away from home.", "preferredTerm": "MFIS - Limited in My Abilities to Do Things Away From Home", "submissionValue": "MFIS0109", "synonyms": ["MFIS01-Limited in Ability Away From Home"]}, {"conceptId": "C113976", "definition": "Modified Fatigue Impact Scale - Because of my fatigue during the past 4 weeks I have had trouble maintaining physical effort for long periods.", "preferredTerm": "MFIS - Have Trouble Maintain Physical Effort", "submissionValue": "MFIS0110", "synonyms": ["MFIS01-Trouble Maintain Physical Effort"]}, {"conceptId": "C113977", "definition": "Modified Fatigue Impact Scale - Because of my fatigue during the past 4 weeks I have had difficulty making decisions.", "preferredTerm": "MFIS - Have Difficulty Making Decisions", "submissionValue": "MFIS0111", "synonyms": ["MFIS01-Have Difficulty Making Decisions"]}, {"conceptId": "C113978", "definition": "Modified Fatigue Impact Scale - Because of my fatigue during the past 4 weeks I have been less motivated to do anything that requires thinking.", "preferredTerm": "MFIS - Less Motivated to Do Anything That Requires Thinking", "submissionValue": "MFIS0112", "synonyms": ["MFIS01-Less Motivated, Thinking"]}, {"conceptId": "C113979", "definition": "Modified Fatigue Impact Scale - Because of my fatigue during the past 4 weeks my muscles have felt weak.", "preferredTerm": "MFIS - Muscles Have Felt Weak", "submissionValue": "MFIS0113", "synonyms": ["MFIS01-My Muscles Have Felt Weak"]}, {"conceptId": "C113980", "definition": "Modified Fatigue Impact Scale - Because of my fatigue during the past 4 weeks I have been physically uncomfortable.", "preferredTerm": "MFIS - Been Physically Uncomfortable", "submissionValue": "MFIS0114", "synonyms": ["MFIS01-Been Physically Uncomfortable"]}, {"conceptId": "C113981", "definition": "Modified Fatigue Impact Scale - Because of my fatigue during the past 4 weeks I have had trouble finishing tasks that require thinking.", "preferredTerm": "MFIS - Have Trouble Finishing Tasks That Require Thinking", "submissionValue": "MFIS0115", "synonyms": ["MFIS01-Trouble Finishing Thinking Tasks"]}, {"conceptId": "C113982", "definition": "Modified Fatigue Impact Scale - Because of my fatigue during the past 4 weeks I have had difficulty organizing my thoughts when doing things at home or at work.", "preferredTerm": "MFIS - Difficulty Organizing My Thoughts", "submissionValue": "MFIS0116", "synonyms": ["MFIS01-Difficulty Organizing My Thoughts"]}, {"conceptId": "C113983", "definition": "Modified Fatigue Impact Scale - Because of my fatigue during the past 4 weeks I have been less able to complete tasks that require physical effort.", "preferredTerm": "MFIS - Less Able to Complete Tasks That Require Physical Effort", "submissionValue": "MFIS0117", "synonyms": ["MFIS01-Less Able Complete Physical Tasks"]}, {"conceptId": "C113984", "definition": "Modified Fatigue Impact Scale - Because of my fatigue during the past 4 weeks my thinking has been slowed down.", "preferredTerm": "MFIS - My Thinking Has Been Slowed Down", "submissionValue": "MFIS0118", "synonyms": ["MFIS01-My Thinking Has Been Slowed Down"]}, {"conceptId": "C113985", "definition": "Modified Fatigue Impact Scale - Because of my fatigue during the past 4 weeks I have had trouble concentrating.", "preferredTerm": "MFIS - Have Trouble Concentrating", "submissionValue": "MFIS0119", "synonyms": ["MFIS01-I Have Had Trouble Concentrating"]}, {"conceptId": "C113986", "definition": "Modified Fatigue Impact Scale - Because of my fatigue during the past 4 weeks I have limited my physical activities.", "preferredTerm": "MFIS - Have Limited My Physical Activities", "submissionValue": "MFIS0120", "synonyms": ["MFIS01-Have Limited My Physical Activity"]}, {"conceptId": "C113987", "definition": "Modified Fatigue Impact Scale - Because of my fatigue during the past 4 weeks I have needed to rest more often or for longer periods.", "preferredTerm": "MFIS - Need to Rest More Often or Longer", "submissionValue": "MFIS0121", "synonyms": ["MFIS01-Need to Rest More Often or Longer"]}]}