{"_links": {"parentPackage": {"href": "/mdr/ct/packages/sdtmct-2022-09-30", "title": "SDTM Controlled Terminology Package 51 Effective 2022-09-30", "type": "Terminology"}, "priorVersion": {"href": "/mdr/ct/packages/sdtmct-2022-06-24/codelists/C117988", "title": "CDISC Questionnaire C-SSRS Lifetime/Recent Version Test Name Terminology", "type": "Code List"}, "rootItem": {"href": "/mdr/root/ct/sdtmct/codelists/C117988", "title": "Version-agnostic anchor resource for codelist C117988", "type": "Root Value Domain"}, "self": {"href": "/mdr/ct/packages/sdtmct-2022-09-30/codelists/C117988", "title": "CDISC Questionnaire C-SSRS Lifetime/Recent Version Test Name Terminology", "type": "Code List"}}, "conceptId": "C117988", "definition": "Columbia-Suicide Severity Rating Scale Lifetime/Recent Version test name.", "extensible": "false", "name": "Columbia-Suicide Severity Rating Scale Lifetime/Recent Version Questionnaire Test Name", "preferredTerm": "CDISC Questionnaire C-SSRS Lifetime/Recent Version Test Name Terminology", "submissionValue": "CSS11TN", "synonyms": ["Columbia-Suicide Severity Rating Scale Lifetime/Recent Version Questionnaire Test Name"], "terms": [{"conceptId": "C118064", "definition": "Columbia-Suicide Severity Rating Scale Lifetime/Recent Version - Description of aborted or self-interrupted attempt.", "preferredTerm": "C-SSRS Lifetime/Recent Version - Description of Aborted Suicide Attempt", "submissionValue": "CSS11-Aborted Attempt, Describe", "synonyms": ["CSS11-Aborted Attempt, Describe"]}, {"conceptId": "C118060", "definition": "Columbia-Suicide Severity Rating Scale Lifetime/Recent Version - Has there been a time when you started to do something to try to end your life but you stopped yourself before you actually did anything? (Lifetime).", "preferredTerm": "C-SSRS Lifetime/Recent Version - Aborted Suicide Attempt (Lifetime)", "submissionValue": "CSS11-Aborted Attempt-Life", "synonyms": ["CSS11-Aborted Attempt-Life"]}, {"conceptId": "C118061", "definition": "Columbia-Suicide Severity Rating Scale Lifetime/Recent Version - Has there been a time when you started to do something to try to end your life but you stopped yourself before you actually did anything? (Past 3 Months).", "preferredTerm": "C-SSRS Lifetime/Recent Version - Aborted Suicide Attempt (Past 3 Months)", "submissionValue": "CSS11-Aborted Attempt-P3M", "synonyms": ["CSS11-Aborted Attempt-P3M"]}, {"conceptId": "C118052", "definition": "Columbia-Suicide Severity Rating Scale Lifetime/Recent Version - Description of actual attempt.", "preferredTerm": "C-SSRS Lifetime/Recent Version - Description of Actual Suicide Attempt", "submissionValue": "CSS11-Actual Attempt, Describe", "synonyms": ["CSS11-Actual Attempt, Describe"]}, {"conceptId": "C118048", "definition": "Columbia-Suicide Severity Rating Scale Lifetime/Recent Version - Have you made a suicide attempt? Have you done anything to harm yourself? Have you done anything dangerous where you could have died? (Lifetime).", "preferredTerm": "C-SSRS Lifetime/Recent Version - Actual Suicide Attempt (Lifetime)", "submissionValue": "CSS11-Actual Attempt-Life", "synonyms": ["CSS11-Actual Attempt-Life"]}, {"conceptId": "C118049", "definition": "Columbia-Suicide Severity Rating Scale Lifetime/Recent Version - Have you made a suicide attempt? Have you done anything to harm yourself? Have you done anything dangerous where you could have died? (Past 3 Months).", "preferredTerm": "C-SSRS Lifetime/Recent Version - Actual Suicide Attempt (Past 3 Months)", "submissionValue": "CSS11-Actual Attempt-P3M", "synonyms": ["CSS11-Actual Attempt-P3M"]}, {"conceptId": "C118077", "definition": "Columbia-Suicide Severity Rating Scale Lifetime/Recent Version - Initial/first attempt actual lethality/medical damage.", "preferredTerm": "C-SSRS Lifetime/Recent Version - First Suicide Attempt Actual Lethality/Medical Damage", "submissionValue": "CSS11-First Attempt Damage", "synonyms": ["CSS11-First Attempt Damage"]}, {"conceptId": "C118076", "definition": "Columbia-Suicide Severity Rating Scale Lifetime/Recent Version - Initial/first attempt date.", "preferredTerm": "C-SSRS Lifetime/Recent Version - First Suicide Attempt Date", "submissionValue": "CSS11-First Attempt Date", "synonyms": ["CSS11-First Attempt Date"]}, {"conceptId": "C118078", "definition": "Columbia-Suicide Severity Rating Scale Lifetime/Recent Version - Initial/first attempt potential lethality.", "preferredTerm": "C-SSRS Lifetime/Recent Version - First Suicide Attempt Potential Lethality", "submissionValue": "CSS11-First Attempt Potential", "synonyms": ["CSS11-First Attempt Potential"]}, {"conceptId": "C118030", "definition": "Columbia-Suicide Severity Rating Scale Lifetime/Recent Version - Description of active suicidal ideation with some intent to act, without specific plan.", "preferredTerm": "C-SSRS Lifetime/Recent Version - Description of Active Suicidal Ideation with Some Intent to Act, without Specific Plan", "submissionValue": "CSS11-Idea, Intent, No Plan, Describe", "synonyms": ["CSS11-Idea, Intent, No Plan, Describe"]}, {"conceptId": "C118028", "definition": "Columbia-Suicide Severity Rating Scale Lifetime/Recent Version - Have you had these thoughts and had some intention of acting on them? (Lifetime).", "preferredTerm": "C-SSRS Lifetime/Recent Version - Active Suicidal Ideation with Some Intent to Act, without Specific Plan (Lifetime)", "submissionValue": "CSS11-Idea, Intent, No Plan-Life", "synonyms": ["CSS11-Idea, Intent, No Plan-Life"]}, {"conceptId": "C118029", "definition": "Columbia-Suicide Severity Rating Scale Lifetime/Recent Version - Have you had these thoughts and had some intention of acting on them? (Past 1 Month).", "preferredTerm": "C-SSRS Lifetime/Recent Version - Active Suicidal Ideation with Some Intent to Act, without Specific Plan (Past 1 Month)", "submissionValue": "CSS11-Idea, Intent, No Plan-P1M", "synonyms": ["CSS11-Idea, Intent, No Plan-P1M"]}, {"conceptId": "C118027", "definition": "Columbia-Suicide Severity Rating Scale Lifetime/Recent Version - Description of active suicidal ideation with any methods (not plan) without intent to act.", "preferredTerm": "C-SSRS Lifetime/Recent Version - Description of Active Suicidal Ideation with Any Methods (Not Plan) without Intent to Act", "submissionValue": "CSS11-Idea, No Intent, No Plan, Describe", "synonyms": ["CSS11-Idea, No Intent, No Plan, Describe"]}, {"conceptId": "C118025", "definition": "Columbia-Suicide Severity Rating Scale Lifetime/Recent Version - Have you been thinking about how you might do this? (Lifetime).", "preferredTerm": "C-SSRS Lifetime/Recent Version - Active Suicidal Ideation with Any Methods (Not Plan) without Intent to Act (Lifetime)", "submissionValue": "CSS11-Idea, No Intent, No Plan-Life", "synonyms": ["CSS11-Idea, No Intent, No Plan-Life"]}, {"conceptId": "C118026", "definition": "Columbia-Suicide Severity Rating Scale Lifetime/Recent Version - Have you been thinking about how you might do this? (Past 1 Month).", "preferredTerm": "C-SSRS Lifetime/Recent Version - Active Suicidal Ideation with Any Methods (Not Plan) without Intent to Act (Past 1 Month)", "submissionValue": "CSS11-Idea, No Intent, No Plan-P1M", "synonyms": ["CSS11-Idea, No Intent, No Plan-P1M"]}, {"conceptId": "C118033", "definition": "Columbia-Suicide Severity Rating Scale Lifetime/Recent Version - Description of active suicidal ideation with specific plan and intent.", "preferredTerm": "C-SSRS Lifetime/Recent Version - Description of Active Suicidal Ideation with Specific Plan and Intent", "submissionValue": "CSS11-Idea, Plan, Intent, Describe", "synonyms": ["CSS11-Idea, Plan, Intent, Describe"]}, {"conceptId": "C118031", "definition": "Columbia-Suicide Severity Rating Scale Lifetime/Recent Version - Have you started to work out or worked out the details of how to kill yourself? Do you intend to carry out this plan? (Lifetime).", "preferredTerm": "C-SSRS Lifetime/Recent Version - Active Suicidal Ideation with Specific Plan and Intent (Lifetime)", "submissionValue": "CSS11-Idea, Plan, Intent-Life", "synonyms": ["CSS11-Idea, Plan, Intent-Life"]}, {"conceptId": "C118032", "definition": "Columbia-Suicide Severity Rating Scale Lifetime/Recent Version - Have you started to work out or worked out the details of how to kill yourself? Do you intend to carry out this plan? (Past 1 Month).", "preferredTerm": "C-SSRS Lifetime/Recent Version - Active Suicidal Ideation with Specific Plan and Intent (Past 1 Month)", "submissionValue": "CSS11-Idea, Plan, Intent-P1M", "synonyms": ["CSS11-Idea, Plan, Intent-P1M"]}, {"conceptId": "C118059", "definition": "Columbia-Suicide Severity Rating Scale Lifetime/Recent Version - Description of interrupted attempt.", "preferredTerm": "C-SSRS Lifetime/Recent Version - Description of Interrupted Suicide Attempt", "submissionValue": "CSS11-Interrupted Attempt, Describe", "synonyms": ["CSS11-Interrupted Attempt, Describe"]}, {"conceptId": "C118055", "definition": "Columbia-Suicide Severity Rating Scale Lifetime/Recent Version - Has there been a time when you started to do something to end your life but someone or something stopped you before you actually did anything? (Lifetime).", "preferredTerm": "C-SSRS Lifetime/Recent Version - Interrupted Suicide Attempt (Lifetime)", "submissionValue": "CSS11-Interrupted Attempt-Life", "synonyms": ["CSS11-Interrupted Attempt-Life"]}, {"conceptId": "C118056", "definition": "Columbia-Suicide Severity Rating Scale Lifetime/Recent Version - Has there been a time when you started to do something to end your life but someone or something stopped you before you actually did anything? (Past 3 Months).", "preferredTerm": "C-SSRS Lifetime/Recent Version - Interrupted Suicide Attempt (Past 3 Months)", "submissionValue": "CSS11-Interrupted Attempt-P3M", "synonyms": ["CSS11-Interrupted Attempt-P3M"]}, {"conceptId": "C118074", "definition": "Columbia-Suicide Severity Rating Scale Lifetime/Recent Version - Most lethal attempt actual lethality/medical damage.", "preferredTerm": "C-SSRS Lifetime/Recent Version - Most Lethal Suicide Attempt Actual Lethality/Medical Damage", "submissionValue": "CSS11-Most Lethal Attempt Damage", "synonyms": ["CSS11-Most Lethal Attempt Damage"]}, {"conceptId": "C118073", "definition": "Columbia-Suicide Severity Rating Scale Lifetime/Recent Version - Most lethal attempt date.", "preferredTerm": "C-SSRS Lifetime/Recent Version - Most Lethal Suicide Attempt Date", "submissionValue": "CSS11-Most Lethal Attempt Date", "synonyms": ["CSS11-Most Lethal Attempt Date"]}, {"conceptId": "C118075", "definition": "Columbia-Suicide Severity Rating Scale Lifetime/Recent Version - Most lethal attempt potential lethality.", "preferredTerm": "C-SSRS Lifetime/Recent Version - Most Lethal Suicide Attempt Potential Lethality", "submissionValue": "CSS11-Most Lethal Attempt Potential", "synonyms": ["CSS11-Most Lethal Attempt Potential"]}, {"conceptId": "C118071", "definition": "Columbia-Suicide Severity Rating Scale Lifetime/Recent Version - Most recent attempt actual lethality/medical damage.", "preferredTerm": "C-SSRS Lifetime/Recent Version - Most Recent Suicide Attempt Actual Lethality/Medical Damage", "submissionValue": "CSS11-Most Recent Attempt Damage", "synonyms": ["CSS11-Most Recent Attempt Damage"]}, {"conceptId": "C118070", "definition": "Columbia-Suicide Severity Rating Scale Lifetime/Recent Version - Most recent attempt date.", "preferredTerm": "C-SSRS Lifetime/Recent Version - Most Recent Suicide Attempt Date", "submissionValue": "CSS11-Most Recent Attempt Date", "synonyms": ["CSS11-Most Recent Attempt Date"]}, {"conceptId": "C118072", "definition": "Columbia-Suicide Severity Rating Scale Lifetime/Recent Version - Most recent attempt potential lethality.", "preferredTerm": "C-SSRS Lifetime/Recent Version - Most Recent Suicide Attempt Potential Lethality", "submissionValue": "CSS11-Most Recent Attempt Potential", "synonyms": ["CSS11-Most Recent Attempt Potential"]}, {"conceptId": "C118042", "definition": "Columbia-Suicide Severity Rating Scale Lifetime/Recent Version - Could/can you stop thinking about killing yourself or wanting to die if you want to? (Lifetime).", "preferredTerm": "C-SSRS Lifetime/Recent Version - Controllability of Most Severe Ideation (Lifetime)", "submissionValue": "CSS11-Most Severe Idea, Control-Life", "synonyms": ["CSS11-Most Severe Idea, Control-Life"]}, {"conceptId": "C118043", "definition": "Columbia-Suicide Severity Rating Scale Lifetime/Recent Version - Could/can you stop thinking about killing yourself or wanting to die if you want to? (Past 1 Month).", "preferredTerm": "C-SSRS Lifetime/Recent Version - Controllability of Most Severe Ideation (Past 1 Month)", "submissionValue": "CSS11-Most Severe Idea, Control-P1M", "synonyms": ["CSS11-Most Severe Idea, Control-P1M"]}, {"conceptId": "C118035", "definition": "Columbia-Suicide Severity Rating Scale Lifetime/Recent Version - Description of most severe ideation. (Lifetime).", "preferredTerm": "C-SSRS Lifetime/Recent Version - Describe Most Severe Ideation (Lifetime)", "submissionValue": "CSS11-Most Severe Idea, Desc-Life", "synonyms": ["CSS11-Most Severe Idea, Desc-Life"]}, {"conceptId": "C118037", "definition": "Columbia-Suicide Severity Rating Scale Lifetime/Recent Version - Description of most severe ideation. (Recent - Past 1 Month).", "preferredTerm": "C-SSRS Lifetime/Recent Version - Describe Recent Most Severe Ideation (Past 1 Month)", "submissionValue": "CSS11-Most Severe Idea, Desc-Recent-P1M", "synonyms": ["CSS11-Most Severe Idea, Desc-Recent-P1M"]}, {"conceptId": "C118044", "definition": "Columbia-Suicide Severity Rating Scale Lifetime/Recent Version - Are there things - anyone or anything (e.g., family, religion, pain of death) - that stopped you from wanting to die or acting on thoughts of committing suicide? (Lifetime).", "preferredTerm": "C-SSRS Lifetime/Recent Version - Deterrents to Most Severe Ideation (Lifetime)", "submissionValue": "CSS11-Most Severe Idea, Deterrents-Life", "synonyms": ["CSS11-Most Severe Idea, Deterrents-Life"]}, {"conceptId": "C118045", "definition": "Columbia-Suicide Severity Rating Scale Lifetime/Recent Version - Are there things - anyone or anything (e.g., family, religion, pain of death) - that stopped you from wanting to die or acting on thoughts of committing suicide? (Past 1 Month).", "preferredTerm": "C-SSRS Lifetime/Recent Version - Deterrents to Most Severe Ideation (Past 1 Month)", "submissionValue": "CSS11-Most Severe Idea, Deterrents-P1M", "synonyms": ["CSS11-Most Severe Idea, Deterrents-P1M"]}, {"conceptId": "C118040", "definition": "Columbia-Suicide Severity Rating Scale Lifetime/Recent Version - When you have the thoughts how long do they last? (Lifetime).", "preferredTerm": "C-SSRS Lifetime/Recent Version - Duration of Most Severe Ideation (Lifetime)", "submissionValue": "CSS11-Most Severe Idea, Duration-Life", "synonyms": ["CSS11-Most Severe Idea, Duration-Life"]}, {"conceptId": "C118041", "definition": "Columbia-Suicide Severity Rating Scale Lifetime/Recent Version - When you have the thoughts how long do they last? (Past 1 Month).", "preferredTerm": "C-SSRS Lifetime/Recent Version - Duration of Most Severe Ideation (Past 1 Month)", "submissionValue": "CSS11-Most Severe Idea, Duration-P1M", "synonyms": ["CSS11-Most Severe Idea, Duration-P1M"]}, {"conceptId": "C118038", "definition": "Columbia-Suicide Severity Rating Scale Lifetime/Recent Version - How many times have you had these thoughts? (Lifetime).", "preferredTerm": "C-SSRS Lifetime/Recent Version - Frequency of Most Severe Ideation (Lifetime)", "submissionValue": "CSS11-Most Severe Idea, Frequency-Life", "synonyms": ["CSS11-Most Severe Idea, Frequency-Life"]}, {"conceptId": "C118039", "definition": "Columbia-Suicide Severity Rating Scale Lifetime/Recent Version - How many times have you had these thoughts? (Past 1 Month).", "preferredTerm": "C-SSRS Lifetime/Recent Version - Frequency of Most Severe Ideation (Past 1 Month)", "submissionValue": "CSS11-Most Severe Idea, Frequency-P1M", "synonyms": ["CSS11-Most Severe Idea, Frequency-P1M"]}, {"conceptId": "C118046", "definition": "Columbia-Suicide Severity Rating Scale Lifetime/Recent Version - What sort of reasons did you have for thinking about wanting to die or killing yourself? Was it to end the pain or stop the way you were feeling (in other words you couldn't go on living with this pain or how you were feeling) or was it to get attention, revenge or a reaction from others? Or both? (Lifetime).", "preferredTerm": "C-SSRS Lifetime/Recent Version - Reasons for Most Severe Ideation (Lifetime)", "submissionValue": "CSS11-Most Severe Idea, Reasons-Life", "synonyms": ["CSS11-Most Severe Idea, Reasons-Life"]}, {"conceptId": "C118047", "definition": "Columbia-Suicide Severity Rating Scale Lifetime/Recent Version - What sort of reasons did you have for thinking about wanting to die or killing yourself? Was it to end the pain or stop the way you were feeling (in other words you couldn't go on living with this pain or how you were feeling) or was it to get attention, revenge or a reaction from others? Or both? (Past 1 Month).", "preferredTerm": "C-SSRS Lifetime/Recent Version - Reasons for Most Severe Ideation (Past 1 Month)", "submissionValue": "CSS11-Most Severe Idea, Reasons-P1M", "synonyms": ["CSS11-Most Severe Idea, Reasons-P1M"]}, {"conceptId": "C118034", "definition": "Columbia-Suicide Severity Rating Scale Lifetime/Recent Version - Most severe ideation. (Lifetime).", "preferredTerm": "C-SSRS Lifetime/Recent Version - Most Severe Ideation (Lifetime)", "submissionValue": "CSS11-Most Severe Idea-Life", "synonyms": ["CSS11-Most Severe Idea-Life"]}, {"conceptId": "C118036", "definition": "Columbia-Suicide Severity Rating Scale Lifetime/Recent Version - Most severe ideation. (Recent - Past 1 Month).", "preferredTerm": "C-SSRS Lifetime/Recent Version - Recent Most Severe Ideation (Past 1 Month)", "submissionValue": "CSS11-Most Severe Idea-Recent-P1M", "synonyms": ["CSS11-Most Severe Idea-Recent-P1M"]}, {"conceptId": "C118024", "definition": "Columbia-Suicide Severity Rating Scale Lifetime/Recent Version - Description of non-specific active suicidal thoughts.", "preferredTerm": "C-SSRS Lifetime/Recent Version - Description of Non-Specific Active Suicidal Thoughts", "submissionValue": "CSS11-Non-Spec Suicid Thought, Describe", "synonyms": ["CSS11-Non-Spec Suicid Thought, Describe"]}, {"conceptId": "C118022", "definition": "Columbia-Suicide Severity Rating Scale Lifetime/Recent Version - Have you actually had any thoughts of killing yourself? (Lifetime).", "preferredTerm": "C-SSRS Lifetime/Recent Version - Non-Specific Active Suicidal Thoughts (Lifetime)", "submissionValue": "CSS11-Non-Spec Suicid Thought-Life", "synonyms": ["CSS11-Non-Spec Suicid Thought-Life"]}, {"conceptId": "C118023", "definition": "Columbia-Suicide Severity Rating Scale Lifetime/Recent Version - Have you actually had any thoughts of killing yourself? (Past 1 Month).", "preferredTerm": "C-SSRS Lifetime/Recent Version - Non-Specific Active Suicidal Thoughts (Past 1 Months)", "submissionValue": "CSS11-Non-Spec Suicid Thought-P1M", "synonyms": ["CSS11-Non-Spec Suicid Thought-P1M"]}, {"conceptId": "C118053", "definition": "Columbia-Suicide Severity Rating Scale Lifetime/Recent Version - Has subject engaged in non-suicidal self-injurious behavior? (Lifetime).", "preferredTerm": "C-SSRS Lifetime/Recent Version - Non-suicidal Self-injurious Behavior (Lifetime)", "submissionValue": "CSS11-Non-suicid Self-injur Behav-Life", "synonyms": ["CSS11-Non-suicid Self-injur Behav-Life"]}, {"conceptId": "C118054", "definition": "Columbia-Suicide Severity Rating Scale Lifetime/Recent Version - Has subject engaged in non-suicidal self-injurious behavior? (Past 3 Months).", "preferredTerm": "C-SSRS Lifetime/Recent Version - Non-suicidal Self-injurious Behavior (Past 3 Months)", "submissionValue": "CSS11-Non-suicid Self-injur Behav-P3M", "synonyms": ["CSS11-Non-suicid Self-injur Behav-P3M"]}, {"conceptId": "C118057", "definition": "Columbia-Suicide Severity Rating Scale Lifetime/Recent Version - Total number of interrupted attempts. (Lifetime).", "preferredTerm": "C-SSRS Lifetime/Recent Version - Number of Interrupted Suicide Attempts (Lifetime)", "submissionValue": "CSS11-Num of Interrupted Attempts-Life", "synonyms": ["CSS11-Num of Interrupted Attempts-Life"]}, {"conceptId": "C118058", "definition": "Columbia-Suicide Severity Rating Scale Lifetime/Recent Version - Total number of interrupted attempts. (Past 3 Months).", "preferredTerm": "C-SSRS Lifetime/Recent Version - Number of Interrupted Suicide Attempts (Past 3 Months)", "submissionValue": "CSS11-Num of Interrupted Attempts-P3M", "synonyms": ["CSS11-Num of Interrupted Attempts-P3M"]}, {"conceptId": "C118062", "definition": "Columbia-Suicide Severity Rating Scale Lifetime/Recent Version - Total number of aborted or self-interrupted attempts. (Lifetime).", "preferredTerm": "C-SSRS Lifetime/Recent Version - Number of Aborted Suicide Attempts (Lifetime)", "submissionValue": "CSS11-Number of Aborted Attempts-Life", "synonyms": ["CSS11-Number of Aborted Attempts-Life"]}, {"conceptId": "C118063", "definition": "Columbia-Suicide Severity Rating Scale Lifetime/Recent Version - Total number of aborted or self-interrupted attempts. (Past 3 Months).", "preferredTerm": "C-SSRS Lifetime/Recent Version - Number of Aborted Suicide Attempts (Past 3 Months)", "submissionValue": "CSS11-Number of Aborted Attempts-P3M", "synonyms": ["CSS11-Number of Aborted Attempts-P3M"]}, {"conceptId": "C118050", "definition": "Columbia-Suicide Severity Rating Scale Lifetime/Recent Version - Total number of actual attempts. (Lifetime).", "preferredTerm": "C-SSRS Lifetime/Recent Version - Number of Actual Suicide Attempts (Lifetime)", "submissionValue": "CSS11-Number of Actual Attempts-Life", "synonyms": ["CSS11-Number of Actual Attempts-Life"]}, {"conceptId": "C118051", "definition": "Columbia-Suicide Severity Rating Scale Lifetime/Recent Version - Total number of actual attempts. (Past 3 Months).", "preferredTerm": "C-SSRS Lifetime/Recent Version - Number of Actual Suicide Attempts (Past 3 Months)", "submissionValue": "CSS11-Number of Actual Attempts-P3M", "synonyms": ["CSS11-Number of Actual Attempts-P3M"]}, {"conceptId": "C118067", "definition": "Columbia-Suicide Severity Rating Scale Lifetime/Recent Version - Description of preparatory acts or behavior.", "preferredTerm": "C-SSRS Lifetime/Recent Version - Description of Preparatory Acts or Behaviors Toward Suicide Attempt", "submissionValue": "CSS11-Preparatory Acts/Behavior, Descr", "synonyms": ["CSS11-Preparatory Acts/Behavior, Descr"]}, {"conceptId": "C118065", "definition": "Columbia-Suicide Severity Rating Scale Lifetime/Recent Version - Have you taken any steps towards making a suicide attempt or preparing to kill yourself (such as collecting pills, getting a gun, giving valuables away or writing a suicide note)? (Lifetime).", "preferredTerm": "C-SSRS Lifetime/Recent Version - Preparatory Acts or Behaviors Toward Suicide Attempt (Lifetime)", "submissionValue": "CSS11-Preparatory Acts/Behavior-Life", "synonyms": ["CSS11-Preparatory Acts/Behavior-Life"]}, {"conceptId": "C118066", "definition": "Columbia-Suicide Severity Rating Scale Lifetime/Recent Version - Have you taken any steps towards making a suicide attempt or preparing to kill yourself (such as collecting pills, getting a gun, giving valuables away or writing a suicide note)? (Past 3 Months).", "preferredTerm": "C-SSRS Lifetime/Recent Version - Preparatory Acts or Behaviors Toward Suicide Attempt (Past 3 Months)", "submissionValue": "CSS11-Preparatory Acts/Behavior-P3M", "synonyms": ["CSS11-Preparatory Acts/Behavior-P3M"]}, {"conceptId": "C118068", "definition": "Columbia-Suicide Severity Rating Scale Lifetime/Recent Version - Suicidal behavior was present during the assessment period? (Lifetime).", "preferredTerm": "C-SSRS Lifetime/Recent Version - Suicidal Behavior (Lifetime)", "submissionValue": "CSS11-Suicidal Behavior-Life", "synonyms": ["CSS11-Suicidal Behavior-Life"]}, {"conceptId": "C118069", "definition": "Columbia-Suicide Severity Rating Scale Lifetime/Recent Version - Suicidal behavior was present during the assessment period? (Past 3 Months).", "preferredTerm": "C-SSRS Lifetime/Recent Version - Suicidal Behavior (Past 3 Months)", "submissionValue": "CSS11-Suicidal Behavior-P3M", "synonyms": ["CSS11-Suicidal Behavior-P3M"]}, {"conceptId": "C118021", "definition": "Columbia-Suicide Severity Rating Scale Lifetime/Recent Version - Description of wishing to be dead.", "preferredTerm": "C-SSRS Lifetime/Recent Version - Description of Wish to be Dead", "submissionValue": "CSS11-Wish to be Dead, Describe", "synonyms": ["CSS11-Wish to be Dead, Describe"]}, {"conceptId": "C118019", "definition": "Columbia-Suicide Severity Rating Scale Lifetime/Recent Version - Have you wished you were dead or wished you could go to sleep and not wake up? (Lifetime).", "preferredTerm": "C-SSRS Lifetime/Recent Version - Wish to be Dead (Lifetime)", "submissionValue": "CSS11-Wish to be Dead-Life", "synonyms": ["CSS11-Wish to be Dead-Life"]}, {"conceptId": "C118020", "definition": "Columbia-Suicide Severity Rating Scale Lifetime/Recent Version - Have you wished you were dead or wished you could go to sleep and not wake up? (Past 1 Month).", "preferredTerm": "C-SSRS Lifetime/Recent Version - Wish to be Dead (Past 1 Month)", "submissionValue": "CSS11-Wish to be Dead-P1M", "synonyms": ["CSS11-Wish to be Dead-P1M"]}]}