{"_links": {"parentPackage": {"href": "/mdr/ct/packages/sdtmct-2022-09-30", "title": "SDTM Controlled Terminology Package 51 Effective 2022-09-30", "type": "Terminology"}, "priorVersion": {"href": "/mdr/ct/packages/sdtmct-2022-06-24/codelists/C117742", "title": "CDISC SDTM Ophthalmic Exam Test Name Terminology", "type": "Code List"}, "rootItem": {"href": "/mdr/root/ct/sdtmct/codelists/C117742", "title": "Version-agnostic anchor resource for codelist C117742", "type": "Root Value Domain"}, "self": {"href": "/mdr/ct/packages/sdtmct-2022-09-30/codelists/C117742", "title": "CDISC SDTM Ophthalmic Exam Test Name Terminology", "type": "Code List"}}, "conceptId": "C117742", "definition": "Terminology relevant to the test names that describe findings from ophthalmic examinations.", "extensible": "true", "name": "Ophthalmic Exam Test Name", "preferredTerm": "CDISC SDTM Ophthalmic Exam Test Name Terminology", "submissionValue": "OETEST", "synonyms": ["Ophthalmic Exam Test Name"], "terms": [{"conceptId": "C117889", "definition": "A measurement of the location, in degrees, of the flatter principal meridian on a 180-degree scale, where 90 degrees designates the vertical meridian and 180 degrees designates the horizontal meridian.", "preferredTerm": "Astigmatism Axis", "submissionValue": "Astigmatism Axis", "synonyms": ["Astigmatism Axis"]}, {"conceptId": "C120538", "definition": "A measurement of the number of cells contained in a unit of volume or area.", "preferredTerm": "Cell Density", "submissionValue": "Cell Density", "synonyms": ["Cell Density"]}, {"conceptId": "C120710", "definition": "The maximum number in a group of values that represent the cell density.", "preferredTerm": "Maximum Cell Density", "submissionValue": "Cell Density, Maximum", "synonyms": ["Cell Density, Maximum"]}, {"conceptId": "C120712", "definition": "The mean number in a group of values that represent the cell density.", "preferredTerm": "Mean Cell Density", "submissionValue": "Cell Density, Mean", "synonyms": ["Cell Density, Mean"]}, {"conceptId": "C120711", "definition": "The minimum number in a group of values that represent the cell density.", "preferredTerm": "Minimum Cell Density", "submissionValue": "Cell Density, Minimum", "synonyms": ["Cell Density, Minimum"]}, {"conceptId": "C120713", "definition": "The standard deviation in a group of values that represent the cell density.", "preferredTerm": "Standard Deviation of Cell Density", "submissionValue": "Cell Density, Standard Deviation", "synonyms": ["Cell Density, Standard Deviation"]}, {"conceptId": "C37927", "definition": "The appearance of objects (or light sources) described in terms of a person's perception of their hue and lightness (or brightness) and saturation. (NCI)", "preferredTerm": "Color", "submissionValue": "Color", "synonyms": ["Color"]}, {"conceptId": "C181511", "definition": "An indication as to whether an eye lens(es) is worn by the subject to correct for distance.", "preferredTerm": "Corrective Lens for Distance Indicator", "submissionValue": "Corrective Lens for Distance Indicator", "synonyms": ["Corrective Lens for Distance Indicator"]}, {"conceptId": "C181512", "definition": "A description of the type of eye lens(es) worn by the subject to correct for distance.", "preferredTerm": "Corrective Lens Type for Distance", "submissionValue": "Corrective Lens Type for Distance", "synonyms": ["Corrective Lens Type for Distance"]}, {"conceptId": "C120714", "definition": "The ratio of the diameter of the optic cup compared to the diameter of the optic disc. (NCI)", "preferredTerm": "Optic Cup to Disc Ratio", "submissionValue": "Cup to Disc Ratio", "synonyms": ["Cup to Disc Ratio"]}, {"conceptId": "C117892", "definition": "A measurement of the extent of defect in vision caused by a mismatch of optical power between the cylindrical and horizontal meridians, resulting in sub-optimal reflection of light onto the retina. (NCI)", "preferredTerm": "Cylindrical Refractive Error", "submissionValue": "Cylindrical Refraction Error", "synonyms": ["Cylindrical Refraction Error"]}, {"conceptId": "C187961", "definition": "The position on a scale to assess diabetic macular edema.", "preferredTerm": "Diabetic Macular Edema Grade", "submissionValue": "Diabetic Macular Edema Grade", "synonyms": ["Diabetic Macular Edema Grade"]}, {"conceptId": "C187962", "definition": "The position on a scale to assess diabetic retinopathy.", "preferredTerm": "Diabetic Retinopathy Grade", "submissionValue": "Diabetic Retinopathy Grade", "synonyms": ["Diabetic Retinopathy Grade"]}, {"conceptId": "C25285", "definition": "The length of a straight line passing through the center of a circle or sphere and connecting two points on the circumference. (NCI)", "preferredTerm": "Diameter", "submissionValue": "Diameter", "synonyms": ["Diameter"]}, {"conceptId": "C120716", "definition": "The mean number in a group of values that represent the diameter of an object.", "preferredTerm": "Mean Diameter", "submissionValue": "Diameter, Mean", "synonyms": ["Diameter, Mean"]}, {"conceptId": "C120715", "definition": "The minimum number in a group of values that represent the diameter of an object.", "preferredTerm": "Minimum Diameter", "submissionValue": "Diameter, Minimum", "synonyms": ["Diameter, Minimum"]}, {"conceptId": "C120717", "definition": "The standard deviation in a group of values that represent the diameter of an object.", "preferredTerm": "Standard Deviation of Diameter", "submissionValue": "Diameter, Standard Deviation", "synonyms": ["Diameter, Standard Deviation"]}, {"conceptId": "C178049", "definition": "An evaluation of edema (an excessive amount of watery fluid) in a biological specimen or location.", "preferredTerm": "Edema Evaluation", "submissionValue": "Edema", "synonyms": ["Edema"]}, {"conceptId": "C147474", "definition": "The position on a scale to assess the degree of comfort associated with the administration of an eye drop.", "preferredTerm": "Eye Drop Comfort Grade", "submissionValue": "Eye Drop Comfort Grade", "synonyms": ["Eye Drop Comfort Grade"]}, {"conceptId": "C132432", "definition": "The position on a scale to assess hyperemia.", "preferredTerm": "Hyperemia Grade", "submissionValue": "Hyperemia Grade", "synonyms": ["Hyperemia Grade"]}, {"conceptId": "C178048", "definition": "An evaluation of hyperemia (an increased amount of blood) in a biological specimen or location.", "preferredTerm": "Hyperemia Evaluation", "submissionValue": "Hyperemia", "synonyms": ["Hyperemia"]}, {"conceptId": "C41255", "definition": "An act or process of elucidation; explication, or explanation of the meaning of the event or thing via the assignment of objects from the domain to the constants of a formal language, truth-values to the proposition symbols, truth-functions to the connectives, other functions to the function symbols, and extensions to the predicates, if any. The assignments are result of human logic application and are not native to the symbols of the formal language.", "preferredTerm": "Interpretation", "submissionValue": "Interpretation", "synonyms": ["Interpretation"]}, {"conceptId": "C87143", "definition": "The fluid pressure within the eye.", "preferredTerm": "Intraocular Pressure", "submissionValue": "Intraocular Pressure", "synonyms": ["Intraocular Pressure"]}, {"conceptId": "C120718", "definition": "The condition or state of the lens of the eye. (NCI)", "preferredTerm": "Lens Status", "submissionValue": "Lens Status", "synonyms": ["Lens Status"]}, {"conceptId": "C117890", "definition": "A number or range of numeric values on the log scale that measures performance, function, quality, or ability.", "preferredTerm": "Log Score", "submissionValue": "Log Score", "synonyms": ["Log Score"]}, {"conceptId": "C96684", "definition": "The longest possible length of a straight line passing through the center of a circular or spheroid object that connects two points on the circumference.", "preferredTerm": "Longest Diameter", "submissionValue": "Longest Diameter", "synonyms": ["Longest Diameter"]}, {"conceptId": "C189626", "definition": "A measurement of the distance from the inferior limbus to the central upper-eyelid margin, with the patient's gaze pointed upward.", "preferredTerm": "Margin Limbal Distance", "submissionValue": "Margin Limbal Distance", "synonyms": ["Margin Limbal Distance"]}, {"conceptId": "C189624", "definition": "A measurement of the distance between the corneal light reflex to the central upper-eyelid margin, with the patient's gaze in the primary position (i.e., straight ahead).", "preferredTerm": "Margin Reflex Distance 1", "submissionValue": "Margin Reflex Distance 1", "synonyms": ["Margin Reflex Distance 1", "Margin to Reflex Distance 1", "Marginal Reflex Distance 1"]}, {"conceptId": "C189625", "definition": "A measurement of the distance between the corneal light reflex to central lower-eyelid margin, with the patient's gaze in the primary position (i.e., straight ahead).", "preferredTerm": "Margin Reflex Distance 2", "submissionValue": "Margin Reflex Distance 2", "synonyms": ["Margin Reflex Distance 2", "Margin to Reflex Distance 2", "Marginal Reflex Distance 2"]}, {"conceptId": "C142233", "definition": "The smallest angle of separation that allows an image-forming device, including the retina, to distinguish two objects as distinct entities.", "preferredTerm": "Minimum Angle of Resolution", "submissionValue": "Minimum Angle of Resolution", "synonyms": ["Minimum Angle of Resolution"]}, {"conceptId": "C142351", "definition": "The base-10 logarithm of the minimum angle of resolution achieved by an individual during testing.", "preferredTerm": "Log10 Minimum Angle of Resolution", "submissionValue": "Minimum Angle of Resolution, Log10", "synonyms": ["Minimum Angle of Resolution, Log10"]}, {"conceptId": "C142352", "definition": "The minimum distance from the retina that an object remains in clear focus.", "preferredTerm": "Near-Point Accommodation", "submissionValue": "Near-Point Accommodation", "synonyms": ["Near-Point Accommodation"]}, {"conceptId": "C142353", "definition": "The integer that describes the number of characters read by the subject during an eye chart assessment.", "preferredTerm": "Number of Characters Read", "submissionValue": "Number of Characters Read", "synonyms": ["Number of Characters Read"]}, {"conceptId": "C142354", "definition": "The integer that describes the number of characters not able to be read by the subject during an eye chart assessment.", "preferredTerm": "Number of Characters Unread", "submissionValue": "Number of Characters Unread", "synonyms": ["Number of Characters Unread"]}, {"conceptId": "C117891", "definition": "The integer that describes the number of letters correctly identified by the subject during an eye chart assessment.", "preferredTerm": "Number of Correct Eye Chart Letters", "submissionValue": "Number of Letters Correct", "synonyms": ["Number of Letters Correct"]}, {"conceptId": "C139242", "definition": "The integer that describes the number of lines read by the subject during an eye chart assessment.", "preferredTerm": "Number of Eye Chart Lines Read", "submissionValue": "Number of Lines Read", "synonyms": ["Number of Lines Read"]}, {"conceptId": "C142355", "definition": "The integer that describes the number of lines not able to be read by the subject during an eye chart assessment.", "preferredTerm": "Number of Lines Unread", "submissionValue": "Number of Lines Unread", "synonyms": ["Number of Lines Unread"]}, {"conceptId": "C189623", "definition": "An assessment of the degree of opaqueness or the lack of transparency.", "preferredTerm": "Opacity Measurement", "submissionValue": "Opacity", "synonyms": ["Opacity"]}, {"conceptId": "C38060", "definition": "An observation, assessment or examination of the eye.", "preferredTerm": "Eye Examination", "submissionValue": "Ophthalmic Examination", "synonyms": ["Ophthalmic Examination"]}, {"conceptId": "C25637", "definition": "A description of the action in response to some kind of stimulus.", "preferredTerm": "Reaction", "submissionValue": "Reactivity", "synonyms": ["Reactivity"]}, {"conceptId": "C25677", "definition": "The spatial arrangement of something as distinct from its substance. (NCI)", "preferredTerm": "Shape", "submissionValue": "Shape", "synonyms": ["Shape"]}, {"conceptId": "C117893", "definition": "A measurement of the extent of defect in vision caused by a mismatch of optimal power between the cornea and/or lens and the length of the eyeball, resulting in sub-optimal reflection of light onto the retina. (NCI)", "preferredTerm": "Spherical Refractive Error", "submissionValue": "Spherical Refractive Error", "synonyms": ["Spherical Refractive Error"]}, {"conceptId": "C147475", "definition": "The actual distance between the subject and the eye chart during an eye assessment.", "preferredTerm": "Actual Subject to Eye Chart Distance", "submissionValue": "Subject to Eye Chart Actual Distance", "synonyms": ["Subject to Eye Chart Actual Distance"]}, {"conceptId": "C147476", "definition": "The planned distance between the subject and the eye chart during an eye assessment.", "preferredTerm": "Planned Subject to Eye Chart Distance", "submissionValue": "Subject to Eye Chart Planned Distance", "synonyms": ["Subject to Eye Chart Planned Distance"]}, {"conceptId": "C172575", "definition": "A measurement of the amount of tears being secreted over a defined amount of time (e.g. 5 minutes).", "preferredTerm": "Tear Secretion Rate", "submissionValue": "Tear Secretion Rate", "synonyms": ["Tear Secretion Rate"]}, {"conceptId": "C172574", "definition": "A measurement of the amount of tear production in a subject.", "preferredTerm": "Tear Secretion Amount", "submissionValue": "Tear Secretion", "synonyms": ["Tear Secretion"]}, {"conceptId": "C41145", "definition": "The dimension between two surfaces of an object, usually the smallest dimension as opposed to the width or the length.", "preferredTerm": "Thickness", "submissionValue": "Thickness", "synonyms": ["Thickness"]}, {"conceptId": "C120719", "definition": "The maximum number in a group of values that represent the thickness of an object.", "preferredTerm": "Maximum Thickness", "submissionValue": "Thickness, Maximum", "synonyms": ["Thickness, Maximum"]}, {"conceptId": "C120721", "definition": "The mean number in a group of values that represent the thickness of an object.", "preferredTerm": "Mean Thickness", "submissionValue": "Thickness, Mean", "synonyms": ["Thickness, Mean"]}, {"conceptId": "C120720", "definition": "The minimum number in a group of values that represent the thickness of an object.", "preferredTerm": "Minimum Thickness", "submissionValue": "Thickness, Minimum", "synonyms": ["Thickness, Minimum"]}, {"conceptId": "C120722", "definition": "The standard deviation in a group of values that represent the thickness of an object.", "preferredTerm": "Standard Deviation of Thickness", "submissionValue": "Thickness, Standard Deviation", "synonyms": ["Thickness, Standard Deviation"]}, {"conceptId": "C147477", "definition": "A measurement of the number of horizontal or vertical lines within a pre-determined unit of length on a visual acuity card.", "preferredTerm": "Acuity Card Grating Frequency", "submissionValue": "Visual Acuity Card Grating Frequency", "synonyms": ["Visual Acuity Card Grating Frequency"]}]}