{"_links": {"parentPackage": {"href": "/mdr/ct/packages/sdtmct-2022-09-30", "title": "SDTM Controlled Terminology Package 51 Effective 2022-09-30", "type": "Terminology"}, "priorVersion": {"href": "/mdr/ct/packages/sdtmct-2022-06-24/codelists/C118971", "title": "CDISC Clinical Classification Category Terminology", "type": "Code List"}, "rootItem": {"href": "/mdr/root/ct/sdtmct/codelists/C118971", "title": "Version-agnostic anchor resource for codelist C118971", "type": "Root Value Domain"}, "self": {"href": "/mdr/ct/packages/sdtmct-2022-09-30/codelists/C118971", "title": "CDISC Clinical Classification Category Terminology", "type": "Code List"}}, "conceptId": "C118971", "definition": "A grouping of observations within the Disease Response and Clin Classification domain.", "extensible": "true", "name": "Category of Clinical Classification", "preferredTerm": "CDISC Clinical Classification Category Terminology", "submissionValue": "CCCAT", "synonyms": ["Category of Clinical Classification"], "terms": [{"conceptId": "C102111", "definition": "Abnormal Involuntary Movement Scale (AIMS) (Guy W. Ed. ECDEU Assessment Manual for Psychopharmacology. Rockville MD: US Dept of Health, Education and Welfare. 1976, Publication No. (ADM) 76-338). CDISC believes this instrument to be in the public domain, but you should perform your own assessment.", "preferredTerm": "Abnormal Involuntary Movement Scale Clinical Classification", "submissionValue": "AIMS", "synonyms": ["AIMS01"]}, {"conceptId": "C125755", "definition": "AJCC TNM Staging System 7th Edition (AJCC V7) (Edge SB, Byrd DR, Compton CC, Fritz AG, Greene FL, Trotti A, editors. AJCC cancer staging manual (7th ed). New York, NY: Springer; 2010). No part of the AJCC V7 may be reproduced, distributed, or transmitted in any form or by any means, including photocopying, recording, or other electronic or mechanical methods, without the prior written permission of Springer and payment of any applicable fees. Copyright Springer 2010. All rights reserved.", "preferredTerm": "AJCC Cancer Staging Manual 7th Edition", "submissionValue": "AJCC V7", "synonyms": ["AJCC1"]}, {"conceptId": "C146985", "definition": "AJCC TNM Staging System 8th Edition (AJCC V8) (Amin, M.B., Edge, S.B., Greene, F.L., et al. (Eds.) AJCC Cancer Staging Manual. 8th Ed. New York: Springer; 2017. AJCC Cancer Staging Manual, Eighth Edition. Copyright 2017 American College of Surgeons. All rights reserved). No part of the AJCC V8 may be reproduced, distributed, or transmitted in any form or by any means, including photocopying, recording, or other electronic or mechanical methods, without the prior written permission of Springer and payment of any applicable fees. Copyright American College of Surgeons 2017. All rights reserved.", "preferredTerm": "AJCC Cancer Staging Manual 8th Edition", "submissionValue": "AJCC V8", "synonyms": ["AJCC2"]}, {"conceptId": "C121005", "definition": "Acute Physiology and Chronic Health Evaluation II (APACHE II) (Knaus WA, Draper EA, Wagner DP, Zimmerman JE. APACHE II: a severity of disease classification system. Critical Care Medicine 1985; 13(10):818-29). CDISC believes this instrument to be in the public domain, but you should perform your own assessment.", "preferredTerm": "Acute Physiology and Chronic Health Evaluation II Clinical Classification", "submissionValue": "APACHE II", "synonyms": ["APCH1"]}, {"conceptId": "C176057", "definition": "Apgar Score V1 (APGAR SCORE V1) (Apgar, Virginia 1953. A Proposal for a New Method of Evaluation of the Newborn Infant. Cur Res in Anesth Analg. 1953 Jul-Aug;32(4):260-7. Butterfield J, Covey MJ. Practical Epigram of the Apgar Score. JAMA. 1962; 181(4):353). CDISC believes this instrument to be in the public domain, but you should perform your own assessment.", "preferredTerm": "Apgar Score Version 1 Clinical Classification", "submissionValue": "APGAR SCORE V1", "synonyms": ["APGR01"]}, {"conceptId": "C119107", "definition": "Stent Thrombosis Coronary ARC Grade (Cutlip DE, Windecker S, Mehran R, et al. Clinical End Points in Coronary Stent Trials : A Case for Standardized Definitions. Circulation. 2007;115:2344-2351). CDISC believes this instrument to be in the public domain, but you should perform your own assessment.", "preferredTerm": "Stent Thrombosis Coronary ARC Grade Clinical Classification", "submissionValue": "ARC STC GRADE", "synonyms": ["STCG01"]}, {"conceptId": "C124705", "definition": "Atherosclerotic Cardiovascular Disease 10-Year Risk Estimator (Goff Jr DC et al. 2013 ACC/AHA Guideline on the Assessment of Cardiovascular Risk: A Report of the American College of Cardiology/American Heart Association Task Force on Practice Guidelines. Circulation 2014; 129: S49-S73). CDISC believes this instrument to be in the public domain, but you should perform your own assessment.", "preferredTerm": "Atherosclerotic Cardiovascular Disease 10-Year Risk Estimator Clinical Classification", "submissionValue": "ASCVD 10-YEAR RISK", "synonyms": ["ASCVD1"]}, {"conceptId": "C124706", "definition": "ASSIGN Cardiovascular Disease 10-Year Risk Score (Woodward M, Brindle P, Tunstall-Pedoe H, for the SIGN group on risk estimation. Adding social deprivation and family history to cardiovascular risk assessment: the ASSIGN score from the Scottish Heart Health Extended Cohort (SHHEC). Heart 2007; 93: 172-176). CDISC believes this instrument to be in the public domain, but you should perform your own assessment.", "preferredTerm": "ASSIGN Cardiovascular Disease 10-Year Risk Score Clinical Classification", "submissionValue": "ASSIGN CVD 10-YEAR RISK", "synonyms": ["ASSG01"]}, {"conceptId": "C147589", "definition": "Age, treatment with systemic antibiotics, leukocyte count, serum albumin, and serum creatinine as a measure of renal function (ATLAS) (Miller, M.A., Louie,T., Mullane, K., Weiss, K., Lentnek, A., Golan, Y., et al. (2013). Derivation and validation of a simple clinical bedside score (ATLAS) for Clostridium difficile infection which predicts response to therapy. BMC Infectious Diseases, 13: 148). CDISC believes this instrument to be in the public domain, but you should perform your own assessment.", "preferredTerm": "ATLAS Score Clinical Classification", "submissionValue": "ATLAS", "synonyms": ["ATLAS1"]}, {"conceptId": "C161656", "definition": "Alert Verbal Painful Unresponsive (AVPU) Scale (American College of Surgeons Committee on Trauma. Advanced trauma life support course for physicians. Chicago, IL: American College of Surgeons; 1989. Kelly CA, Upex A, Bateman DN. Comparison of consciousness level assessment in the poisoned patient using the alert/verbal/painful/unresponsive scale and the Glasgow Coma Scale. Annals of Emergency Medicine 2004 Aug;44(2):108-13). CDISC believes this instrument to be in the public domain, but you should perform your own assessment.", "preferredTerm": "Alert Verbal Painful Unresponsive Scale Clinical Classification", "submissionValue": "AVPU", "synonyms": ["AVPU01"]}, {"conceptId": "C102113", "definition": "Barnes Akathisia Rating Scale (BARS) (Barnes TR: A Rating Scale for Drug-Induced Akathisia. British Journal of Psychiatry 154:672-676, 1989).", "preferredTerm": "Barnes Akathisia Rating Scale Clinical Classification", "submissionValue": "BARS", "synonyms": ["BARS01"]}, {"conceptId": "C106693", "definition": "Baseline Dyspnea Index (BDI) (Mahler DA, Weinberg DH, Wells CK, Feinstein AR. The measurement of dyspnea. Contents, interobserver agreement, and physiologic correlates of two new clinical indexes. Chest 1984, 85: 751-758). No part of the BDI may be reproduced, distributed, or transmitted in any form or by any means, including photocopying, recording, or other electronic or mechanical methods, without the prior written permission of Donald A. Mahler, MD and payment of any applicable fees. Copyright Donald A. Mahler. All rights reserved.", "preferredTerm": "Baseline Dyspnea Index Clinical Classification", "submissionValue": "BDI", "synonyms": ["BDI01"]}, {"conceptId": "C121006", "definition": "The Body-Mass Index, Airflow Obstruction, Dyspnea, and Exercise Capacity Index (BODE Index) (Bartolome R. Celli, M.D., Claudia G. Cote, M.D., Jose M. Marin, M.D., Ciro Casanova, M.D., Maria Montes de Oca, M.D., Reina A. Mendez, M.D., Victor Pinto Plata, M.D., and Howard J. Cabral, Ph.D.; N Engl J Med 2004;350:1005-12). CDISC believes this instrument to be in the public domain, but you should perform your own assessment.", "preferredTerm": "The Body-Mass Index, Airflow Obstruction, Dyspnea, and Exercise Capacity Index Clinical Classification", "submissionValue": "BODE INDEX", "synonyms": ["BODE01"]}, {"conceptId": "C161657", "definition": "Brief Psychiatric Rating Scale 1988 Version (BPRS 1988 VERSION) (Overall, JE, Gorham DR: The Brief Psychiatric Rating Scale (BPRS): recent developments in ascertainment and scaling. Psychopharmacology Bulletin 24:97-99, 1988). CDISC believes this instrument to be in the public domain, but you should perform your own assessment.", "preferredTerm": "Brief Psychiatric Rating Scale 1988 Version Clinical Classification", "submissionValue": "BPRS 1988 VERSION", "synonyms": ["BPRS01"]}, {"conceptId": "C100761", "definition": "Brief Psychiatric Rating Scale - Anchored (BPRS-A) (Woerner MB, Mannuzza S, and Kane JM. Anchoring the BPRS: An Aid to Improved Reliability. Psychopharmacology Bulletin 1988; 24(1):112-117). CDISC believes this instrument to be in the public domain, but you should perform your own assessment.", "preferredTerm": "Brief Psychiatric Rating Scale A Clinical Classification", "submissionValue": "BPRS-A", "synonyms": ["BPRSA1"]}, {"conceptId": "C130304", "definition": "Brooke Upper Extremity Rating Scale (BUERS) (Brooke MG, Griggs RC, Mendell JR, Fenichel, GM, Shumate JB and Peggegrino RJ (1981). Clinical trial in duchenne dystrophy. I The Design of the Protocol. Muscle and Nerve: 4:186-197). CDISC believes this instrument to be in the public domain, but you should perform your own assessment.", "preferredTerm": "Brooke Upper Extremity Rating Scale Clinical Classification", "submissionValue": "BUERS", "synonyms": ["BUERS1"]}, {"conceptId": "C187509", "definition": "Clinician-Administered PTSD Scale (Current) DSM-5 With DSM IV Scoring 2016 Version (CAPS DSM-5 WITH DSM IV SCORING 2016 VERSION) (2016 Version Copyrighted. Sara Freedman, Michal Achituv, Arieh Y Shalev. Center for Traumatic Stress Studies. Shaare Zedek Medical Center, Jerusalem). No part of the CAPS DSM-5 WITH DSM IV SCORING 2016 VERSION may be reproduced, distributed, or transmitted in any form or by any means, including photocopying, recording, or other electronic or mechanical methods, without the prior written permission of the copyright holders and payment of any applicable fees. Copyright Sara Freedman, Michal Achituv, Arieh Y Shalev. All rights reserved.", "preferredTerm": "Clinician-Administered PTSD Scale (Current) DSM-5 With DSM IV Scoring 2016 Version Clinical Classification", "submissionValue": "CAPS DSM-5 WITH DSM IV SCORING 2016 VERSION", "synonyms": ["CAP01"]}, {"conceptId": "C176059", "definition": "Crohn's Disease Activity Index Version 1 (CDAI V1) (Best WR, Becktel JM, Singleton JW, Kern F Jr. Development of a Crohn's disease activity index. National Cooperative Crohn's Disease Study. Gastroenterology. 1976 Mar;70(3):439-44). CDISC believes this instrument to be in the public domain, but you should perform your own assessment.", "preferredTerm": "Crohn's Disease Activity Index Version 1 Clinical Classification", "submissionValue": "CDAI V1", "synonyms": ["CDAI01"]}, {"conceptId": "C124715", "definition": "CDC Classification System for HIV-Infected Adults and Adolescents (Centers for Disease Control and Prevention. 1993 Revised Classification System for HIV Infection and Expanded Surveillance Case Definition for AIDS Among Adolescents and Adults. MMWR Recomm Rep. 1992 Dec 18;41(RR-17):1-19). CDISC believes this instrument to be in the public domain, but you should perform your own assessment.", "preferredTerm": "Center for Disease Control and Prevention Classification System for HIV-Infected Adults and Adolescents Clinical Classification", "submissionValue": "CDC HIV CLASSIFICATION FOR ADULTS AND ADOLESCENTS", "synonyms": ["CHIVC1"]}, {"conceptId": "C155323", "definition": "Children's Depression Rating Scale, Revised (CDRS-R) (Copyright 1995 by WESTERN PSYCHOLOGICAL SERVICES. Not to be reproduced in whole or in part without written permission. All rights reserved). No part of the CDRS-R may be reproduced, distributed, or transmitted in any form or by any means, including photocopying, recording, or other electronic or mechanical methods, without the prior written permission of WESTERN PSYCHOLOGICAL SERVICES and payment of any applicable fees. Copyright WESTERN PSYCHOLOGICAL SERVICES. All rights reserved.", "preferredTerm": "Children's Depression Rating Scale, Revised Clinical Classification", "submissionValue": "CDRS-R", "synonyms": ["CDRS1"]}, {"conceptId": "C121007", "definition": "Child-Pugh Classification (Guidance for Industry Pharmacokinetics in Patients with Impaired Hepatic Function: Study Design, Data Analysis, and Impact on Dosing and Labeling. U.S. Department of Health and Human Services; Food and Drug Administration; Center for Drug Evaluation and Research (CDER); Center for Biologics Evaluation and Research (CBER). May 2003, Clinical Pharmacology. http://www.fda.gov/downloads/Drugs/GuidanceComplianceRegulatoryInformation/Guidances/UCM072123.pdf; http://www.halaven.com/sites/default/files/ChildPugh_FlashCard.pdf). CDISC believes this instrument to be in the public domain, but you should perform your own assessment.", "preferredTerm": "Child-Pugh Clinical Classification", "submissionValue": "CHILD-PUGH CLASSIFICATION", "synonyms": ["CPS01"]}, {"conceptId": "C189701", "definition": "Cumulative Illness Rating Scale for Geriatrics (CIRS-G) (A Manual of Guidelines for Scoring the Cumulative Illness Rating Scale for Geriatrics (CIRS-G), May 1991, written by Mark D. Miller, M.D. with Adele Towers, M.D., University of Pittsburgh School of Medicine, Department of Geriatric Psychiatry, Western Psychiatric Institute and Clinic, 3811 O'Hara Street Pittsburgh, Pennsylvania 15213). No part of the CIRS-G may be reproduced, distributed, or transmitted in any form or by any means, including photocopying, recording, or other electronic or mechanical methods, without the prior written permission of Mark D. Miller and Adele Towers and payment of any applicable fees. Copyright Mark D. Miller and Adele Towers 1991. All rights reserved.", "preferredTerm": "Cumulative Illness Rating Scale for Geriatrics Clinical Classification", "submissionValue": "CIRS-G", "synonyms": ["CIRSG1"]}, {"conceptId": "C156675", "definition": "Covi Anxiety Scale (COVI) (Lipman RS. Differentiating anxiety and depression in anxiety disorders: use of rating scales. Psychopharmacol Bull 1982; 18(4):69-77). CDISC believes this instrument to be in the public domain, but you should perform your own assessment.", "preferredTerm": "Covi Anxiety Scale Clinical Classification", "submissionValue": "COVI", "synonyms": ["COVI01"]}, {"conceptId": "C124711", "definition": "JFK Coma Recovery Scale-Revised (CRS-R) (Joseph T. Giacino, Kathleen Kalmar, John Whyte. The JFK Coma Recovery Scale-Revised: Measurement Characteristics and Diagnostic Utility. Arch Phys Med Rehabil Vol 85, December 2004). CDISC believes this instrument to be in the public domain, but you should perform your own assessment.", "preferredTerm": "JFK Coma Recovery Scale-Revised Clinical Classification", "submissionValue": "CRS-R", "synonyms": ["CRSR01"]}, {"conceptId": "C112519", "definition": "Disease Steps (DS) (Hohol MJ, Orav EJ, Weiner HL. Disease steps in multiple sclerosis: a simple approach to evaluate disease progression. Neurology. 1995 Feb;45(2):251-5). CDISC believes this instrument to be in the public domain, but you should perform your own assessment.", "preferredTerm": "Disease Steps Clinical Classification", "submissionValue": "DISEASE STEPS", "synonyms": ["DS01"]}, {"conceptId": "C115796", "definition": "Disability Rating Scale (DRS) (Rappaport et al. (1982) Disability Rating Scale for Severe Head Trauma Patients: Coma to Community. Archives of Physical Medicine and Rehabilitation, 63:118-123).", "preferredTerm": "Disability Rating Scale Clinical Classification", "submissionValue": "DRS", "synonyms": ["DRS01"]}, {"conceptId": "C161658", "definition": "Emory Treatment Resistance Interview for PTSD (E-TRIP) (Dunlop BW, Kaye JL, Youngner C, Rothbaum B. Assessing Treatment-Resistant Posttraumatic Stress Disorder: The Emory Treatment Resistance Interview for PTSD (E-TRIP). Behav Sci (Basel) 2014; Dec 8; 4(4):511-527). No part of the E-TRIP may be reproduced, distributed, or transmitted in any form or by any means, including photocopying, recording, or other electronic or mechanical methods, without the prior written permission of Boadie W. Dunlop, MD and payment of any applicable fees. Copyright Boadie W. Dunlop, MD, 2018. All rights reserved.", "preferredTerm": "Emory Treatment Resistance Interview for PTSD Clinical Classification", "submissionValue": "E-TRIP", "synonyms": ["ETRP01"]}, {"conceptId": "C102116", "definition": "Eastern Cooperative Oncology Group (ECOG) Performance Status (Oken MM, Creech RH, Tormey DC, Horton J, Davis TE, McFadden ET, Carbone PP. Toxicity and response criteria of the Eastern Cooperative Oncology Group. Am J Clin Oncol. 1982 Dec;5(6):649-55). CDISC believes this instrument to be in the public domain, but you should perform your own assessment.", "preferredTerm": "Eastern Cooperative Oncology Group Performance Status Clinical Classification", "submissionValue": "ECOG", "synonyms": ["ECOG1"]}, {"conceptId": "C112520", "definition": "Kurtzke Expanded Disability Status Scale (EDSS) (Kurtzke JF. Rating neurologic impairment in multiple sclerosis: an expanded disability status scale (EDSS). Neurology. 1983 Nov;33(11):1444-52).", "preferredTerm": "Kurtzke Expanded Disability Status Scale Clinical Classification", "submissionValue": "EDSS", "synonyms": ["EDSS01"]}, {"conceptId": "C117997", "definition": "Extrapyramidal Symptom Rating Scale-Abbreviated (ESRS-A) (Copyright 2006 Larry Alphs, MD, PhD, Guy Chouinard, MD, All Rights Reserved).", "preferredTerm": "Extrapyramidal Symptom Rating Scale-Abbreviated Clinical Classification", "submissionValue": "ESRSA", "synonyms": ["ESRSA1"]}, {"conceptId": "C111381", "definition": "Functional Activities Questionnaire (FAQ) (Pfeiffer, RI.; Kurosaki, TT.; Harrah, CH. Jr.; Chance, JM.; and Filos, S. (1982). Measurement of functional activities in older adults in the community. Journal of Gerontology, 37(3), 323-329.). No part of the FAQ may be reproduced, distributed, or transmitted in any form or by any means, including photocopying, recording, or other electronic or mechanical methods, without the prior written permission of Robert I Pfeffer and payment of any applicable fees. Copyright Robert I Pfeffer 1987. All rights reserved.", "preferredTerm": "Functional Activities Questionnaire Clinical Classification", "submissionValue": "FAQ", "synonyms": ["FAQ01"]}, {"conceptId": "C111382", "definition": "Functional Assessment Questionnaire-NACC UDS V2.0 (FAQ-NACC UDS V2.0) (Pfeffer, RI.; Kurosaki, TT.; Harrah, CH. Jr.; Chance, JM.; and Filos, S. (1982). Measurement of functional activities in older adults in the community. Journal of Gerontology, 37(3), 323-329.). (Reproduced with permission. Copyright 2011 University of Washington. Created and published by the ADC Clinical Task Force. John C. Morris, MD, Chair, and the National Alzheimer's Coordinating Center. U01 AG016976 - Walter A. Kukull, PhD, Director). No part of the FAQ-NACC UDS V2.0 may be reproduced, distributed, or transmitted in any form or by any means, including photocopying, recording, or other electronic or mechanical methods, without the prior written permission of the University of Washington and payment of any applicable fees. Copyright University of Washington 2011. All rights reserved.", "preferredTerm": "Functional Assessment Questionnaire-NACC UDS Version 2.0 Clinical Classification", "submissionValue": "FAQ-NACC UDS V2.0", "synonyms": ["FAQNA1"]}, {"conceptId": "C170643", "definition": "Functional Assessment Scale-NACC UDS v3.0 (FAS-NACC UDS V3.0) (These materials discuss and/or include NACC Functional Assessment Scale (FAS) v3.0 which is owned exclusively by the University of Washington. Copyright Reproduced with permission. Copyright 2006, 2008, 2015, 2017 University of Washington. Created and published by the ADC Clinical Task Force (John C. Morris, MD, Chair) and the National Alzheimer's Coordinating Center (U01 AG016976 - Walter A. Kukull, PhD, Director). All rights reserved). No part of the FAS-NACC UDS V3.0 may be reproduced, distributed, or transmitted in any form or by any means, including photocopying, recording, or other electronic or mechanical methods, without prior written permission of the University of Washington and payment of any applicable fees. Copyright 2006, 2008, 2015, 2017 University of Washington. All rights reserved.", "preferredTerm": "Functional Assessment Scale-NACC UDS Version 3.0 Clinical Classification", "submissionValue": "FAS-NACC UDS V3.0", "synonyms": ["FASNA1"]}, {"conceptId": "C124707", "definition": "Framingham Heart Study Cardiovascular Disease 10-Year Risk Score (D'Agostino Sr RB, Vasan RS, Pencina MJ, Wolf PA, Cobain M, Massaro JM, and Kannel WB. General Cardiovascular Risk Profile for Use in Primary Care: The Framingham Heart Study. Circulation 2008; 117: 743-753).", "preferredTerm": "Framingham Heart Study Cardiovascular Disease 10-Year Risk Score Clinical Classification", "submissionValue": "FHS CVD 10-YEAR RISK", "synonyms": ["FCVD1"]}, {"conceptId": "C124710", "definition": "Glasgow Coma Scale (GCS) The National Institute of Neurological Disorders and Stroke (NINDS) Version (Graham Teasdale and Bryan Jennett. Assessment of coma and impaired consciousness. A practical scale. Lancet. 1974 Jul 13; 2(7872):81-4).", "preferredTerm": "Glasgow Coma Scale-NINDS Version Clinical Classification", "submissionValue": "GCS NINDS VERSION", "synonyms": ["GCS01"]}, {"conceptId": "C187510", "definition": "Global Dystonia Severity Rating Scale (GDRS) (Comella CL, Leurgans S, Wuu J, Stebbins GT, Chmura T; Dystonia Study Group. Rating scales for dystonia: a multicenter assessment. Mov Disord. 2003 Mar;18(3):303-12. Copyright 2018 International Parkinson and Movement Disorder Society. All rights reserved.). No part of the Global Dystonia Severity Rating Scale may be reproduced, distributed, or transmitted in any form or by any means, including photocopying, recording, or other electronic or mechanical methods, without the prior written permission of the International Parkinson and Movement Disorder Society and payment of any applicable fees. Copyright International Parkinson and Movement Disorder Society 2018. All rights reserved.", "preferredTerm": "Global Dystonia Severity Rating Scale Clinical Classification", "submissionValue": "GDRS", "synonyms": ["GDRS1"]}, {"conceptId": "C102118", "definition": "The Hamilton Anxiety Rating Scale (HAM-A) (Hamilton M. The assessment of anxiety states by rating. Br J Med Psychol 1959; 32:50-55).", "preferredTerm": "Hamilton Anxiety Rating Scale Clinical Classification", "submissionValue": "HAM-A", "synonyms": ["HAMA1"]}, {"conceptId": "C100767", "definition": "The Hamilton Depression Rating Scale 17-Item (HAMD 17) (Hamilton M. A rating scale for depression. J Neurol Neurosurg Psychiatry 1960; 23:56-62. Hamilton M. Development of a rating scale for primary depressive illness. Br J Soc Clin Psychol 1967; 6(4):278-96. Assessment Scales in Depression, Mania and Anxiety, Raymond W Lam, Erin E. Michalak, Richard P Swinson, Copyright 2005 Taylor & Francis, an imprint of the Taylor & Francis Group. Guy W, ECDEU Assessment Manual for Psychopharmacology. Rockville, MD: US Department of Health, Education, and Welfare, 1976. The Hamilton Rating Scale for Depression: The making of a ''gold standard'' and the unmaking of a chronic illness, 1960-1980).", "preferredTerm": "Hamilton Depression Rating Scale 17 Item Clinical Classification", "submissionValue": "HAMD 17", "synonyms": ["HAMD1"]}, {"conceptId": "C102119", "definition": "The Hamilton Depression Rating Scale 21-Item (HAMD 21) (Hedlund and Vieweg, The Hamilton rating scale for depression. Journal of Operational Psychiatry, 1979;10(2):149-165).", "preferredTerm": "Hamilton Depression Rating Scale 21-Item Clinical Classification", "submissionValue": "HAMD 21", "synonyms": ["HAMD2"]}, {"conceptId": "C130307", "definition": "The Hamilton Depression Rating Scale 24-Item (HAM-D24) (Clinical Psychometrics: Per Bech, MD; John Wiley & Sons, Ltd. 2012).", "preferredTerm": "Hamilton Depression Rating Scale-24 Item Clinical Classification", "submissionValue": "HAMD 24", "synonyms": ["HAMD3"]}, {"conceptId": "C130306", "definition": "The Hamilton Depression Rating Scale 6 - Clinician Version (HAM-D6 - Clinician Version) (Clinical Research: Rating scales in depression: limitations and pitfalls; Per Bech, MD; Copyright 2006 LLS SAS. All rights reserved).", "preferredTerm": "Hamilton Depression Rating Scale 6 Clinician Version Clinical Classification", "submissionValue": "HAMD 6 CLINICIAN VERSION", "synonyms": ["HAMD4"]}, {"conceptId": "C138332", "definition": "HAS-BLED Bleeding Risk Score (HAS-BLED) (This image was published in Chest, 138 (5), Pisters R, Lane DA, Nieuwlaat R, de Vos CB, Crijns HJ, Lip GY, A Novel User-Friendly Score (HAS-BLED) To Assess 1-Year Risk of Major Bleeding in Patients With Atrial Fibrillation: The Euro Heart Survey, Copyright Elsevier (2010). http://www.sciencedirect.com/science/journal/00123692).", "preferredTerm": "HAS-BLED Bleeding Risk Score Clinical Classification", "submissionValue": "HAS-BLED", "synonyms": ["HSB01"]}, {"conceptId": "C130308", "definition": "Inventory of Depressive Symptomatology - Clinician-Rated (IDS-C) (Copyright UT Southwestern Medical Center at Dallas. Rush, A.J., Giles, D.E., Schlesser, M.A., Fulton, C.L.,Weissenburger, J.E. and Burns, C.T. The Inventory of Depressive Symptomatology (IDS): Preliminary findings. Psychiatry Research, 18:65-87, 1986).", "preferredTerm": "Inventory of Depressive Symptomatology Clinician-Rated Version Clinical Classification", "submissionValue": "IDS-C", "synonyms": ["IDSC1"]}, {"conceptId": "C170645", "definition": "Kidney Disease: Improving Global Outcomes Staging For Acute Kidney Injury (KDIGO AKI)  (Kidney Disease: Improving Global Outcomes (KDIGO) Acute Kidney Injury Work Group. KDIGO Clinical Practice Guideline for Acute Kidney Injury. Kidney inter., Suppl. 2012; 2:1-138). CDISC believes this instrument to be in the public domain, but you should perform your own assessment.", "preferredTerm": "Kidney Disease Improving Global Outcomes Staging For Acute Kidney Injury Clinical Classification", "submissionValue": "KDIGO AKI", "synonyms": ["KDIGO1"]}, {"conceptId": "C130310", "definition": "Kidney Donor Profile Index (KDPI) (OPTN/UNOS. A guide to calculating and interpreting the Kidney Donor Profile Index (KDPI). [Accessed April 18, 2016]. Available at: https://optn.transplant.hrsa.gov/media/1512/guide_to_calculating_interpreting_kdpi.pdf. Rao PS, Schaubel DE, Guidinger MK, et al. A comprehensive risk quantification score for deceased donor kidneys: the kidney donor risk index. Transplantation 2009 Jul 27;88(2):231-6).", "preferredTerm": "Kidney Donor Profile Index Clinical Classification", "submissionValue": "KDPI", "synonyms": ["KDPI01"]}, {"conceptId": "C112522", "definition": "Kurtzke Functional Systems Scores (FSS) (Kurtzke JF. Rating neurologic impairment in multiple sclerosis: an expanded disability status scale (EDSS). Neurology. 1983 Nov;33(11):1444-52).", "preferredTerm": "Kurtzke Functional Systems Scores Clinical Classification", "submissionValue": "KFSS", "synonyms": ["KFSS1"]}, {"conceptId": "C100768", "definition": "The Karnofsky Performance Status Scale (KPSS) (Karnofsky DA, Burchenal JH. (1949). \"The Clinical Evaluation of Chemotherapeutic Agents in Cancer.\" In: MacLeod CM (Ed), Evaluation of Chemotherapeutic Agents. Columbia Univ Press. Page 196).", "preferredTerm": "Karnofsky Performance Status Scale Clinical Classification", "submissionValue": "KPS SCALE", "synonyms": ["KPSS01"]}, {"conceptId": "C138333", "definition": "The Lansky Play-Performance Status Scale (LPSS) (Lansky SB, List MA, Lansky LL, Ritter-Sterr C, Miller DR. The measurement of performance in childhood cancer patients. Cancer. 1987 Oct 1;60(7):1651-6).", "preferredTerm": "The Lansky Play-Performance Status Scale Clinical Classification", "submissionValue": "LPPS SCALE", "synonyms": ["LPPSS1"]}, {"conceptId": "C121008", "definition": "Model for End Stage Liver Disease (MELD) (Malinchoc M, Kamath PS, Gordon FD, Peine CJ, Rank J, ter Borg PC (April 2000). A model to predict poor survival in patients undergoing transjugular intrahepatic portosystemic shunts. Hepatology 31 (4): 864-71).", "preferredTerm": "Model for End Stage Liver Disease Clinical Classification", "submissionValue": "MELD", "synonyms": ["MELD01"]}, {"conceptId": "C171357", "definition": "National Early Warning Score 2 (NEWS2) (Royal College of Physicians. National Early Warning Score (NEWS) 2: Standardising the assessment of acute-illness severity in the NHS. Updated report of a working party. London: RCP, 2017).", "preferredTerm": "National Early Warning Score 2 Clinical Classification", "submissionValue": "NEWS2", "synonyms": ["NEWS1"]}, {"conceptId": "C119105", "definition": "Coronary Artery Dissection NHLBI Grade (Coronary Artery angiographic changes after PTCA: Manual of Operations NHBLI PTCA Registry 1985-6:9).", "preferredTerm": "Coronary Artery Dissection NHLBI Grade Clinical Classification", "submissionValue": "NHLBI CAD GRADE", "synonyms": ["CADG01"]}, {"conceptId": "C121009", "definition": "Negative Symptom Assessment-16 (NSA-16) (Version 2.0, Copyright 2006, Larry Alphs, MD, PhD, All Right Reserved).", "preferredTerm": "Negative Symptom Assessment-16 Clinical Classification", "submissionValue": "NSA-16", "synonyms": ["NSA01"]}, {"conceptId": "C132531", "definition": "North Star Ambulatory Assessment (NSAA) (Copyright the North Star Clinical Network UK. Scott E, Eagle M, Mayhew A, Freeman J, Main M, Sheehan J, Manzur A, Muntoni F; North Star Clinical Network for Paediatric Neuromuscular Disease. Development of a functional assessment scale for ambulatory boys with Duchenne muscular dystrophy. Physiother Res Int. 2012 Jun;17(2):101-9. The support of Muscular Dystrophy United Kingdom in developing the North Star Ambulatory Assessment is gratefully acknowledged).", "preferredTerm": "North Star Ambulatory Assessment Clinical Classification", "submissionValue": "NSAA", "synonyms": ["NSAA1"]}, {"conceptId": "C124712", "definition": "Positive and Negative Syndrome Scale (PANSS) (Copyright 1992 Multi-Health Systems Inc. All rights reserved).", "preferredTerm": "Positive and Negative Syndrome Scale Clinical Classification", "submissionValue": "PANSS", "synonyms": ["PANSS1"]}, {"conceptId": "C179972", "definition": "Psoriasis Area and Severity Index Version 2 (PASI V2) (Feldman SR, Krueger GG. Psoriasis assessment tools in clinical trials. Ann Rheum Dis. 2005;64(Suppl 2):ii65-ii73). CDISC believes this instrument to be in the public domain, but you should perform your own assessment.", "preferredTerm": "Psoriasis Area and Severity Index Version 2 Clinical Classification", "submissionValue": "PASI V2", "synonyms": ["PASI02"]}, {"conceptId": "C135734", "definition": "Psoriasis Area and Severity Index (PASI) (Fredriksson T, Pettersson U. Severe psoriasis--Oral Therapy with a New Retinoid. Dermatologica. 1978;157(4):238-244. Feldman SR, Krueger GG. Psoriasis assessment tools in clinical trials. Ann Rheum Dis. 2005;64(Suppl 2):ii65-ii73).", "preferredTerm": "Psoriasis Area and Severity Index Clinical Classification", "submissionValue": "PASI", "synonyms": ["PASI01"]}, {"conceptId": "C130309", "definition": "Quick Inventory of Depressive Symptomatology - Clinician-Rated (QIDS-C) (Copyright UT Southwestern Medical Center at Dallas. Rush AJ, Trivedi MH, Ibrahim HM, Carmody TJ, Arnow B, Klein DN, Markowitz JC, Ninan PT, Kornstein S, Manber R, Thase ME, Kocsis JH, Keller MB. The 16-item Quick Inventory of Depressive Symptomatology (QIDS) Clinician Rating (QIDS-C) and Self-Report (QIDS-SR): A psychometric evaluation in patients with chronic major depression. Biological Psychiatry, 54:573-583, 2003).", "preferredTerm": "Quick Inventory of Depressive Symptomatology Clinician-Rated Version Clinical Classification", "submissionValue": "QIDS-C", "synonyms": ["QIDSC1"]}, {"conceptId": "C171417", "definition": "Richmond Agitation-Sedation Scale (RASS) (Sessler CN, Gosnell M, Grap MJ, Brophy GT, O'Neal PV, Keane KA et al. The Richmond Agitation-Sedation Scale: validity and reliability in adult intensive care patients. Am J Respir Crit Care Med. 2002 Nov 15;166:1338-1344. Copyright Virginia Commonwealth University 2000. All Rights Reserved).", "preferredTerm": "Richmond Agitation-Sedation Scale Clinical Classification", "submissionValue": "RASS", "synonyms": ["RASS01"]}, {"conceptId": "C124708", "definition": "Reynolds Cardiovascular Disease 10-Year Risk Score (Ridker PM, Buring JE, Rifai N, Cook NR. Development and Validation of Improved Algorithms for the Assessment of Global Cardiovascular Risk in Women: The Reynolds Risk Score. Jama 2007; 297: 611-619), (Ridker PM, Paynter NP, Rifai N, Gaziano JM, Cook NR. C-Reactive Protein and Parental History Improve Global Cardiovascular Risk Prediction: The Reynolds Risk Score for Men. Circulation2008; 118(22): 2243-2251).", "preferredTerm": "Reynolds Cardiovascular Disease 10-Year Risk Score Clinical Classification", "submissionValue": "REYNOLDS CVD 10-YEAR RISK", "synonyms": ["RCVD01"]}, {"conceptId": "C174061", "definition": "Rett Syndrome Severity Scale (RSSS) (Kalkwarf HJ, Zemel BS, Gilsanz V, Lappe JM, Horlick M, Oberfield S, Mahboubi S, Fan B, Frederick MM, Winer K, Shepherd JA. The bone mineral density in childhood study: bone mineral content and density according to age, sex, and race. J Clin Endocrinol Metab. 2007 Jun;92(6):2087-99).", "preferredTerm": "Rett Syndrome Severity Scale Clinical Classification", "submissionValue": "RSSS", "synonyms": ["RSSS01"]}, {"conceptId": "C171418", "definition": "Riker Sedation-Agitation Scale (SAS) (Riker, Richard R. MD, FCCP; Picard, Jean T. BSN, CCRN; Fraser, Gilles L. PharmD. Prospective evaluation of the Sedation-Agitation Scale for adult critically ill patients. Critical Care Medicine. July 1999; 27:7:1325-1329. Copyright Lippincott Williams & Wilkins, Inc. 1999. All Rights Reserved).", "preferredTerm": "Riker Sedation-Agitation Scale Clinical Classification", "submissionValue": "SAS", "synonyms": ["SAS01"]}, {"conceptId": "C176060", "definition": "Simple Endoscopic Score for Crohn's Disease Version 1 (SES-CD V1) (Daperno M, D'Haens G, Van Assche G, Baert F, Bulois P, Maunoury V, Sostegni R, Rocca R, Pera A, Gevers A, Mary JY, Colombel JF, Rutgeerts P. Development and validation of a new, simplified endoscopic activity score for Crohn's disease: the SES-CD. Gastrointest Endosc 2004; 60 (4): 505-512). CDISC believes this instrument to be in the public domain, but you should perform your own assessment.", "preferredTerm": "Simple Endoscopic Score for Crohn's Disease Version 1 Clinical Classification", "submissionValue": "SES-CD V1", "synonyms": ["SES01"]}, {"conceptId": "C124703", "definition": "Tanner Scale Boy (Marshall WA, Tanner JM. Variations in pattern of pubertal changes in boys. Arch Dis Child 1970 Feb;45(239):13-23).", "preferredTerm": "Tanner Scale Boy Version", "submissionValue": "TANNER SCALE BOY", "synonyms": ["TANN02"]}, {"conceptId": "C124704", "definition": "Tanner Scale Girl (Marshall WA, Tanner JM. Variations in pattern of pubertal changes in girls. Arch Dis Child 1969 Jun; 44(235): 291-303).", "preferredTerm": "Tanner Scale Girl Version", "submissionValue": "TANNER SCALE GIRL", "synonyms": ["TANN01"]}, {"conceptId": "C106694", "definition": "Transition Dyspnea Index (TDI) (Mahler DA, Weinberg DH, Wells CK, Feinstein AR. The measurement of dyspnea. Contents, interobserver agreement, and physiologic correlates of two new clinical indexes. Chest 1984, 85: 751-758).", "preferredTerm": "Transition Dyspnea Index Clinical Classification", "submissionValue": "TDI", "synonyms": ["TDI01"]}, {"conceptId": "C119104", "definition": "Coronary Thrombus TIMI Grade (TIMI Definitions for Commonly Used Terms in Clinical Trials. Available at http://www.timi.org/wp-content/uploads/2010/10/TIMI-Definitions.pdf. Accessed November 30, 2013).", "preferredTerm": "Coronary Thrombus TIMI Grade Clinical Classification", "submissionValue": "TIMI THROMBUS GRADE", "synonyms": ["TIMG01"]}, {"conceptId": "C155324", "definition": "Unified Huntington's Disease Rating Scale '99 (UHDRS 1999) (Huntington Study Group. (1996). Unified Huntington's Disease Rating Scale: Reliability and Consistency. Movement Disorders, 11(2), 136-142).", "preferredTerm": "Unified Huntington's Disease Rating Scale 1999 Version Clinical Classification", "submissionValue": "UHDRS 1999", "synonyms": ["UHDR1"]}, {"conceptId": "C100778", "definition": "Unified Parkinson's Disease Rating Scale (UPDRS) (Fahn S, Marsden CD, Calne DB, Goldstein M, eds. Recent Developments in Parkinson's Disease, Vol 2. Florham Park, NJ. Macmillan Health Care Information 1987, pp 153-163, 293-304).", "preferredTerm": "Unified Parkinson's Disease Rating Scale Clinical Classification", "submissionValue": "UPDRS", "synonyms": ["UPD1"]}, {"conceptId": "C141685", "definition": "Veterans Administration Lung Study Group (VALG) (Staging small cell lung cancer: Veterans Administration Lung Study Group versus International Association for the Study of Lung Cancer--what limits limited disease? Micke P, Faldum A, Metz T, Beeh K.-M, Bittinger F, Hengstler J.-G, Buhl R, Lung Cancer 2002;37:271-276).", "preferredTerm": "Veterans Administration Lung Study Group Clinical Classification", "submissionValue": "VALG", "synonyms": ["VALG01"]}, {"conceptId": "C130305", "definition": "Vignos Lower Extremity Rating Scale (VLERS) (Vignos PJ, Spencer CE, Archibald KC. (1963) Management of progressive muscular dystrophy in childhood.JAMA 184:389-96. Brooke MG, Griggs RC, Mendell JR, Fenichel, GM, Shumate JB and Peggegrino RJ (1981). Clinical trial in duchenne dystrophy. I The Design of the Protocol. Muscle and Nerve: 4:186-197).", "preferredTerm": "Vignos Lower Extremity Rating Scale Clinical Classification", "submissionValue": "VLERS", "synonyms": ["VLERS1"]}, {"conceptId": "C124709", "definition": "West Haven Hepatic Encephalopathy Grade (Blei AT, Cordoba J. Hepatic Encephalopathy. Am J Gastroenterol. 2001 Jul. 96(7):1968-76).", "preferredTerm": "West Haven Hepatic Encephalopathy Grade Clinical Classification", "submissionValue": "WEST HAVEN HEPATIC ENCEPHALOPATHY GRADE", "synonyms": ["WHEG01"]}, {"conceptId": "C124713", "definition": "WHO Clinical Staging of HIV/AIDS for Adults and Adolescents (Copyright World Health Organization 2007, World Health Organization. WHO case definitions of HIV for surveillance and revised clinical staging and immunological classification of HIV-related disease in adults and children; 2007. Retrieved from http://www.who.int/hiv/pub/vct/hivstaging/en/).", "preferredTerm": "World Health Organization Clinical Staging of HIV/AIDS for Adults and Adolescents Clinical Classification", "submissionValue": "WHO HIV STAGING FOR ADULTS AND ADOLESCENTS", "synonyms": ["WHIVS1"]}, {"conceptId": "C124714", "definition": "WHO Clinical Staging of HIV/AIDS for Children (Copyright World Health Organization 2007, World Health Organization. WHO case definitions of HIV for surveillance and revised clinical staging and immunological classification of HIV-related disease in adults and children; 2007. Retrieved from http://www.who.int/hiv/pub/vct/hivstaging/en/).", "preferredTerm": "World Health Organization Clinical Staging of HIV/AIDS for Children Clinical Classification", "submissionValue": "WHO HIV STAGING FOR CHILDREN", "synonyms": ["WHIVS2"]}]}