{"_links": {"parentPackage": {"href": "/mdr/ct/packages/sdtmct-2022-09-30", "title": "SDTM Controlled Terminology Package 51 Effective 2022-09-30", "type": "Terminology"}, "priorVersion": {"href": "/mdr/ct/packages/sdtmct-2022-06-24/codelists/C119062", "title": "CDISC Questionnaire AUDIT-C Test Code Terminology", "type": "Code List"}, "rootItem": {"href": "/mdr/root/ct/sdtmct/codelists/C119062", "title": "Version-agnostic anchor resource for codelist C119062", "type": "Root Value Domain"}, "self": {"href": "/mdr/ct/packages/sdtmct-2022-09-30/codelists/C119062", "title": "CDISC Questionnaire AUDIT-C Test Code Terminology", "type": "Code List"}}, "conceptId": "C119062", "definition": "Alcohol Use Disorder Identification Test-Consumption Questions test code.", "extensible": "false", "name": "Alcohol Use Disorder Identification Test-Consumption Questions Questionnaire Test Code", "preferredTerm": "CDISC Questionnaire AUDIT-C Test Code Terminology", "submissionValue": "ADTC01TC", "synonyms": ["Alcohol Use Disorder Identification Test-Consumption Questions Questionnaire Test Code"], "terms": [{"conceptId": "C119119", "definition": "Alcohol Use Disorder Identification Test-Consumption questions - How often do you have a drink containing alcohol?", "preferredTerm": "AUDIT-C - How Often Have Alcohol Drink", "submissionValue": "ADTC0101", "synonyms": ["ADTC01-How Often Drink Alcohol"]}, {"conceptId": "C119120", "definition": "Alcohol Use Disorder Identification Test-Consumption questions - How many standard drinks containing alcohol do you have on a typical day?", "preferredTerm": "AUDIT-C - How Many Alcohol Drinks on a Typical Day", "submissionValue": "ADTC0102", "synonyms": ["ADTC01-Alcohol Drinks on a Typical Day"]}, {"conceptId": "C119121", "definition": "Alcohol Use Disorder Identification Test-Consumption questions - How often do you have six or more drinks on one occasion?", "preferredTerm": "AUDIT-C - How Often Have Six or More Drinks", "submissionValue": "ADTC0103", "synonyms": ["ADTC01-Six or More Drinks One Occasion"]}]}