{"_links": {"parentPackage": {"href": "/mdr/ct/packages/sdtmct-2022-09-30", "title": "SDTM Controlled Terminology Package 51 Effective 2022-09-30", "type": "Terminology"}, "priorVersion": {"href": "/mdr/ct/packages/sdtmct-2022-06-24/codelists/C124662", "title": "CDISC Clinical Classification Tanner Scale-Boy Test Code Terminology", "type": "Code List"}, "rootItem": {"href": "/mdr/root/ct/sdtmct/codelists/C124662", "title": "Version-agnostic anchor resource for codelist C124662", "type": "Root Value Domain"}, "self": {"href": "/mdr/ct/packages/sdtmct-2022-09-30/codelists/C124662", "title": "CDISC Clinical Classification Tanner Scale-Boy Test Code Terminology", "type": "Code List"}}, "conceptId": "C124662", "definition": "Tanner Scale Boy test code.", "extensible": "false", "name": "Tanner Scale Boy Clinical Classification Test Code", "preferredTerm": "CDISC Clinical Classification Tanner Scale-Boy Test Code Terminology", "submissionValue": "TANN02TC", "synonyms": ["Tanner Scale Boy Clinical Classification Test Code"], "terms": [{"conceptId": "C124716", "definition": "Tanner Scale Boy - Genitalia stages.", "preferredTerm": "Tanner Scale-Boy - Genitalia Stages", "submissionValue": "TANN0201", "synonyms": ["TANN02-Genitalia Stages"]}, {"conceptId": "C124717", "definition": "Tanner Scale Boy - Pubic hair stages.", "preferredTerm": "Tanner Scale-Boy - Pubic Hair Stages", "submissionValue": "TANN0202", "synonyms": ["TANN02-Pubic Hair Stages"]}]}