{"_links": {"parentPackage": {"href": "/mdr/ct/packages/sdtmct-2022-09-30", "title": "SDTM Controlled Terminology Package 51 Effective 2022-09-30", "type": "Terminology"}, "priorVersion": {"href": "/mdr/ct/packages/sdtmct-2022-06-24/codelists/C125743", "title": "CDISC Questionnaire ASEX-Male Version Test Code Terminology", "type": "Code List"}, "rootItem": {"href": "/mdr/root/ct/sdtmct/codelists/C125743", "title": "Version-agnostic anchor resource for codelist C125743", "type": "Root Value Domain"}, "self": {"href": "/mdr/ct/packages/sdtmct-2022-09-30/codelists/C125743", "title": "CDISC Questionnaire ASEX-Male Version Test Code Terminology", "type": "Code List"}}, "conceptId": "C125743", "definition": "Arizona Sexual Experiences Scale - Male test code.", "extensible": "false", "name": "Arizona Sexual Experiences Scale - Male Questionnaire Test Code", "preferredTerm": "CDISC Questionnaire ASEX-Male Version Test Code Terminology", "submissionValue": "ASEX02TC", "synonyms": ["Arizona Sexual Experiences Scale - Male Questionnaire Test Code"], "terms": [{"conceptId": "C125768", "definition": "Arizona Sexual Experiences Scale Male - How strong is your sex drive?", "preferredTerm": "ASEX-Male Version - Sex Drive", "submissionValue": "ASEX0201", "synonyms": ["ASEX02-Sex Drive"]}, {"conceptId": "C125769", "definition": "Arizona Sexual Experiences Scale Male - How easily are you sexually aroused (turned on)?", "preferredTerm": "ASEX-Male Version - Sexually Aroused", "submissionValue": "ASEX0202", "synonyms": ["ASEX02-Sexually Aroused"]}, {"conceptId": "C125770", "definition": "Arizona Sexual Experiences Scale Male - Can you easily get and keep an erection?", "preferredTerm": "ASEX-Male Version - Keep Erection", "submissionValue": "ASEX0203", "synonyms": ["ASEX02-Keep Erection"]}, {"conceptId": "C125771", "definition": "Arizona Sexual Experiences Scale Male - How easily can you reach an orgasm?", "preferredTerm": "ASEX-Male Version - Reach Orgasm", "submissionValue": "ASEX0204", "synonyms": ["ASEX02-Reach Orgasm"]}, {"conceptId": "C125772", "definition": "Arizona Sexual Experiences Scale Male - Are your orgasms satisfying?", "preferredTerm": "ASEX-Male Version - Orgasms Satisfying", "submissionValue": "ASEX0205", "synonyms": ["ASEX02-Orgasms Satisfying"]}, {"conceptId": "C129256", "definition": "Arizona Sexual Experiences Scale Male - Comments.", "preferredTerm": "ASEX-Male Version - Comments", "submissionValue": "ASEX0206", "synonyms": ["ASEX02-Comments"]}]}