{"_links": {"parentPackage": {"href": "/mdr/ct/packages/sdtmct-2022-09-30", "title": "SDTM Controlled Terminology Package 51 Effective 2022-09-30", "type": "Terminology"}, "priorVersion": {"href": "/mdr/ct/packages/sdtmct-2022-06-24/codelists/C130250", "title": "CDISC Clinical Classification KDPI Test Name Terminology", "type": "Code List"}, "rootItem": {"href": "/mdr/root/ct/sdtmct/codelists/C130250", "title": "Version-agnostic anchor resource for codelist C130250", "type": "Root Value Domain"}, "self": {"href": "/mdr/ct/packages/sdtmct-2022-09-30/codelists/C130250", "title": "CDISC Clinical Classification KDPI Test Name Terminology", "type": "Code List"}}, "conceptId": "C130250", "definition": "Kidney Donor Profile Index test name.", "extensible": "false", "name": "Kidney Donor Profile Index Clinical Classification Test Name", "preferredTerm": "CDISC Clinical Classification KDPI Test Name Terminology", "submissionValue": "KDPI01TN", "synonyms": ["Kidney Donor Profile Index Clinical Classification Test Name"], "terms": [{"conceptId": "C130393", "definition": "Kidney Donor Profile Index - KDPI score.", "preferredTerm": "KDPI - KDPI Score", "submissionValue": "KDPI01-KDPI Score", "synonyms": ["KDPI01-KDPI Score"]}]}