{"_links": {"parentPackage": {"href": "/mdr/ct/packages/sdtmct-2022-09-30", "title": "SDTM Controlled Terminology Package 51 Effective 2022-09-30", "type": "Terminology"}, "priorVersion": {"href": "/mdr/ct/packages/sdtmct-2022-06-24/codelists/C132263", "title": "CDISC SDTM Microscopic Findings Test Code Terminology", "type": "Code List"}, "rootItem": {"href": "/mdr/root/ct/sdtmct/codelists/C132263", "title": "Version-agnostic anchor resource for codelist C132263", "type": "Root Value Domain"}, "self": {"href": "/mdr/ct/packages/sdtmct-2022-09-30/codelists/C132263", "title": "CDISC SDTM Microscopic Findings Test Code Terminology", "type": "Code List"}}, "conceptId": "C132263", "definition": "Terminology for the test codes concerned with the clinical findings from a specimen that are visible by microscopic analysis.", "extensible": "true", "name": "SDTM Microscopic Findings Test Code", "preferredTerm": "CDISC SDTM Microscopic Findings Test Code Terminology", "submissionValue": "MITSCD", "synonyms": ["SDTM Microscopic Findings Test Code"], "terms": [{"conceptId": "C111124", "definition": "A measurement of the abnormal cells in a biological specimen.", "preferredTerm": "Abnormal Cell Count", "submissionValue": "ABNCE", "synonyms": ["Abnormal Cells"]}, {"conceptId": "C181485", "definition": "An evaluation of acidophil bodies in a biological specimen.", "preferredTerm": "Acidophil Body Assessment", "submissionValue": "ACDOBOD", "synonyms": ["Acidophil Bodies", "Acidophil Body"]}, {"conceptId": "C154805", "definition": "A measurement of the ALK receptor tyrosine kinase in a biological specimen.", "preferredTerm": "ALK Protein Measurement", "submissionValue": "ALK", "synonyms": ["ALK Protein"]}, {"conceptId": "C132364", "definition": "A measurement of the alpha-methylacyl coenzyme A racemase in a biological specimen.", "preferredTerm": "Alpha-Methylacyl Coenzyme A Racemase Measurement", "submissionValue": "AMACR", "synonyms": ["Alpha-Methylacyl Coenzyme A Racemase"]}, {"conceptId": "C181495", "definition": "A measurement of the apoptotic cells in a biological specimen.", "preferredTerm": "Apoptotic Cell Count", "submissionValue": "APOCE", "synonyms": ["Apoptotic Cells"]}, {"conceptId": "C181494", "definition": "A relative measurement (ratio or percentage) of the apoptotic cells to total cells in a biological specimen.", "preferredTerm": "Apoptotic Cell to Total Cell Count", "submissionValue": "APOCECE", "synonyms": ["Apoptotic Cells/Total Cells"]}, {"conceptId": "C178037", "definition": "An evaluation of tissue architectural changes in a biological specimen.", "preferredTerm": "Architectural Changes Assessment", "submissionValue": "ARCHCHG", "synonyms": ["Architectural Changes"]}, {"conceptId": "C135463", "definition": "An evaluation of the arteriolar hyaline thickening of vessels in a biological specimen.", "preferredTerm": "Arteriolar Hyaline Thickening Assessment", "submissionValue": "ARTLRHYT", "synonyms": ["Arteriolar Hyaline Thickening"]}, {"conceptId": "C184703", "definition": "A measurement of the androgen receptor variant 7 in a biological specimen.", "preferredTerm": "Androgen Receptor Variant 7 Measurement", "submissionValue": "ARV7", "synonyms": ["Androgen Receptor Variant 7", "AR-V7"]}, {"conceptId": "C135464", "definition": "The histologic evaluation and diagnosis of the type of renal allograft rejection based on kidney biopsies and the Banff Working Classification from the Banff Foundation for Allograft Pathology. (NCI)", "preferredTerm": "Banff Renal Diagnostic Category Assessment", "submissionValue": "BANFRDX", "synonyms": ["Banff Diagnostic Category Renal"]}, {"conceptId": "C98865", "definition": "A relative measurement (ratio or percentage) of the basophils to total cells in a biological specimen (for example a bone marrow specimen).", "preferredTerm": "Basophil to Total Cell Ratio Measurement", "submissionValue": "BASOCE", "synonyms": ["Basophils/Total Cells"]}, {"conceptId": "C156546", "definition": "A measurement of the beta-defensin 1 in a biological specimen.", "preferredTerm": "Beta-defensin 1 Measurement", "submissionValue": "BD1", "synonyms": ["Beta-defensin 1"]}, {"conceptId": "C122102", "definition": "A measurement of the beta-defensin 2 in a biological specimen.", "preferredTerm": "Beta-defensin 2 Measurement", "submissionValue": "BD2", "synonyms": ["Beta-defensin 2"]}, {"conceptId": "C139099", "definition": "A measurement of the bradykinin receptor B1 in a biological specimen.", "preferredTerm": "Bradykinin Receptor B1 Measurement", "submissionValue": "BDKRB1", "synonyms": ["BK-1 Receptor", "Bradykinin Receptor B1"]}, {"conceptId": "C178041", "definition": "The total number of biopsy specimens in which a finding has been observed.", "preferredTerm": "Number of Biopsy Specimens Affected", "submissionValue": "BIAFFNUM", "synonyms": ["Number of Biopsy Specimens Affected"]}, {"conceptId": "C150836", "definition": "A relative measurement (ratio or percentage) of the blasts to total cells in a biological specimen.", "preferredTerm": "Blasts to Total Cells Ratio Measurement", "submissionValue": "BLASTCE", "synonyms": ["Blasts/Total Cells"]}, {"conceptId": "C156545", "definition": "An evaluation of the blood vessel density in a biological specimen.", "preferredTerm": "Blood Vessel Density", "submissionValue": "BLDVESD", "synonyms": ["Blood Vessel Density"]}, {"conceptId": "C98761", "definition": "A relative measurement (ratio or percentage) of the myeloblasts to total cells in a biological specimen (for example a bone marrow specimen).", "preferredTerm": "Myeloblast to Total Cell Ratio Measurement", "submissionValue": "BLSTMBCE", "synonyms": ["Myeloblasts/Total Cells"]}, {"conceptId": "C98753", "definition": "A relative measurement (ratio or percentage) of the megakaryoblasts to total cells in a biological specimen (for example a bone marrow specimen).", "preferredTerm": "Megakaryoblast to Total Cell Ratio Measurement", "submissionValue": "BLSTMKCE", "synonyms": ["Megakaryoblasts/Total Cells"]}, {"conceptId": "C123555", "definition": "A measurement of BRCA1 protein in a biological specimen.", "preferredTerm": "Breast Cancer Type 1 Susceptibility Protein Measurement", "submissionValue": "BRCA1", "synonyms": ["Breast Cancer Type 1 Susceptibility Prot"]}, {"conceptId": "C103809", "definition": "A count of the CD3 expressing cells per unit in a biological specimen.", "preferredTerm": "CD3 Expressing Cell Count", "submissionValue": "CD3", "synonyms": ["CD3"]}, {"conceptId": "C103810", "definition": "A count of the CD4 expressing cells per unit in a biological specimen.", "preferredTerm": "CD4 Expressing Cell Count", "submissionValue": "CD4", "synonyms": ["CD4"]}, {"conceptId": "C103370", "definition": "A count of the CD56 expressing cells per unit of a biological specimen.", "preferredTerm": "CD56 Expressing Cell Measurement", "submissionValue": "CD56", "synonyms": ["CD56"]}, {"conceptId": "C156544", "definition": "A count of the CD68 expressing cells per unit in a biological specimen.", "preferredTerm": "CD68 Expressing Cell Count", "submissionValue": "CD68", "synonyms": ["CD68"]}, {"conceptId": "C103811", "definition": "A count of the CD8 expressing cells per unit in a biological specimen.", "preferredTerm": "CD8 Expressing Cell Count", "submissionValue": "CD8", "synonyms": ["CD8"]}, {"conceptId": "C139098", "definition": "A measurement of the CDX2 antigen in a biological specimen.", "preferredTerm": "CDX2 Antigen Measurement", "submissionValue": "CDX2AG", "synonyms": ["CDX2 Antigen"]}, {"conceptId": "C187946", "definition": "An interpretive assessment of the proportion of various cell types in a biological specimen.", "preferredTerm": "Cell Distribution Measurement", "submissionValue": "CEDISTR", "synonyms": ["Cell Distribution"]}, {"conceptId": "C132430", "definition": "An evaluation of cellular maturity and specialization in a biological specimen.", "preferredTerm": "Cellular Differentiation Assessment", "submissionValue": "CELLDIFF", "synonyms": ["Cellular Differentiation"]}, {"conceptId": "C111153", "definition": "A measurement of the degree, quality or condition of cells in a biological specimen.", "preferredTerm": "Cellularity Measurement", "submissionValue": "CELLULAR", "synonyms": ["Cellularity", "Cellularity Grade"]}, {"conceptId": "C178042", "definition": "An evaluation of chronic inflammatory infiltrate in a biological specimen.", "preferredTerm": "Chronic Inflammatory Infiltrate Assessment", "submissionValue": "CHINFINL", "synonyms": ["Chronic Inflammatory Infiltrate"]}, {"conceptId": "C139092", "definition": "A measurement of the total number of core biopsies that contain malignant tissue. (NCI)", "preferredTerm": "Number of Malignant Biopsy Cores", "submissionValue": "CORBIOMN", "synonyms": ["Number of Malignant Biopsy Cores"]}, {"conceptId": "C176336", "definition": "An evaluation of crypt abscess in a biological specimen.", "preferredTerm": "Crypt Abscess Assessment", "submissionValue": "CRYPABSC", "synonyms": ["Crypt Abscess"]}, {"conceptId": "C176337", "definition": "An evaluation of the extent of the architectural damage to the crypts in a biological specimen.", "preferredTerm": "Crypt Architectural Damage Assessment", "submissionValue": "CRYPARCD", "synonyms": ["Crypt Architectural Damage"]}, {"conceptId": "C176335", "definition": "An evaluation of cryptitis in a biological specimen.", "preferredTerm": "Cryptitis Assessment", "submissionValue": "CRYPTTS", "synonyms": ["Cryptitis"]}, {"conceptId": "C127763", "definition": "A measurement of the cytokeratin 16 in a biological specimen.", "preferredTerm": "Cytokeratin 16 Measurement", "submissionValue": "CY16", "synonyms": ["Cytokeratin 16"]}, {"conceptId": "C18280", "definition": "An assessment by microscopic analysis of chromosomal and subchromosomal structure and function.", "preferredTerm": "Cytogenetic Analysis", "submissionValue": "CYEXAM", "synonyms": ["Cytogenetic Examination"]}, {"conceptId": "C127764", "definition": "A measurement of the dendritic cell-lysosomal-associated membrane protein in a biological specimen.", "preferredTerm": "Dendritic Cell Lysosomal-Associated Membrane Protein Measurement", "submissionValue": "DCLAMP", "synonyms": ["Dendritic Cell-Lysosomal-Assoc Memb Prot"]}, {"conceptId": "C15220", "definition": "The investigation, analysis and recognition of the presence and nature of disease, condition, or injury from expressed signs and symptoms; also, the scientific determination of any kind; the concise results or summary of such an investigation. (NCI)", "preferredTerm": "Diagnosis", "submissionValue": "DIAGNOS", "synonyms": ["Diagnostic"]}, {"conceptId": "C112273", "definition": "A measurement of the epidermal growth factor receptor in a biological specimen.", "preferredTerm": "Epidermal Growth Factor Receptor Measurement", "submissionValue": "EGFR", "synonyms": ["Epidermal Growth Factor Receptor", "ERBB1", "HER1"]}, {"conceptId": "C154806", "definition": "A measurement of the EGFR protein with a specified variation(s) (mutations, deletions, insertions, etc.) in a biological specimen.", "preferredTerm": "EGFR Variant Protein Measurement", "submissionValue": "EGFRVP", "synonyms": ["EGFR Variant Protein"]}, {"conceptId": "C184699", "definition": "An evaluation of extramural venous invasion in a biological specimen.", "preferredTerm": "Extramural Venous Invasion Assessment", "submissionValue": "EMVI", "synonyms": ["Extramural Venous Invasion"]}, {"conceptId": "C98720", "definition": "A relative measurement (ratio or percentage) of the eosinophils to total cells in a biological specimen (for example a bone marrow specimen).", "preferredTerm": "Eosinophils to Total Cell Ratio Measurement", "submissionValue": "EOSCE", "synonyms": ["Eosinophils/Total Cells"]}, {"conceptId": "C178036", "definition": "An evaluation of epithelial damage in a biological specimen.", "preferredTerm": "Epithelial Damage Assessment", "submissionValue": "EPIDMG", "synonyms": ["Epithelial Damage"]}, {"conceptId": "C176338", "definition": "An evaluation of the integrity of the epithelium in a biological specimen.", "preferredTerm": "Epithelial Integrity Assessment", "submissionValue": "EPITHINT", "synonyms": ["Epithelial Integrity"]}, {"conceptId": "C156547", "definition": "A relative measurement (ratio or percentage) of the intact epithelial reticular basement membrane length to the total epithelial reticular basement membrane length in a biological specimen.", "preferredTerm": "Intact Epithelial Reticular Basement Membrane Length to Total Epithelial Reticular Basement Membrane Length Ratio Measurement", "submissionValue": "ERLIERLT", "synonyms": ["Epi RBM Lngth, Intact/Epi RBM Lngth, Tot", "Epithelial RBM Length, Intact/Epithelial RBM Length, Total"]}, {"conceptId": "C178045", "definition": "An evaluation of the erosion and/or ulceration in a biological specimen.", "preferredTerm": "Erosion and/or Ulceration Assessment", "submissionValue": "EROULC", "synonyms": ["Erosion and/or Ulceration"]}, {"conceptId": "C112274", "definition": "A measurement of estrogen receptor protein in a biological specimen.", "preferredTerm": "Estrogen Receptor Measurement", "submissionValue": "ESTRCPT", "synonyms": ["ER", "ESR", "Estrogen Receptor", "Oestrogen Receptor"]}, {"conceptId": "C127765", "definition": "An evaluation of fibrosis in a biological specimen.", "preferredTerm": "Fibrosis Assessment", "submissionValue": "FIBROSIS", "synonyms": ["Fibrosis"]}, {"conceptId": "C132431", "definition": "A measurement of the folate hydrolase 1 in a biological specimen.", "preferredTerm": "Folate Hydrolase 1 Measurement", "submissionValue": "FOLH1", "synonyms": ["Folate Hydrolase 1"]}, {"conceptId": "C166072", "definition": "A measurement of the forkhead box protein 3 in a biological specimen.", "preferredTerm": "Forkhead Box Protein P3 Measurement", "submissionValue": "FOXP3", "synonyms": ["AIID", "DIETER", "Forkhead Box P3", "Forkhead Box Protein 3", "IPEX", "JM2", "PIDX", "SCURFIN", "XPID"]}, {"conceptId": "C147493", "definition": "A qualitative microscopic examination of tissue sections to determine the presence of pathologic finding(s). This term is intended to be used for non-targeted examinations.", "preferredTerm": "Qualitative Histopathologic Examination", "submissionValue": "GHISTXQL", "synonyms": ["General Histopathologic Examination, Qualitative", "General Histopathological Exam, Qual"]}, {"conceptId": "C135465", "definition": "An evaluation of glomerulitis in a biological specimen.", "preferredTerm": "Glomerulitis Assessment", "submissionValue": "GLOMLTIS", "synonyms": ["Glomerulitis"]}, {"conceptId": "C135466", "definition": "An evaluation of glomerulopathy in a biological specimen.", "preferredTerm": "Glomerulopathy Assessment", "submissionValue": "GLOMPATH", "synonyms": ["Glomerulopathy"]}, {"conceptId": "C189621", "definition": "A measurement of the goblet cells in a biological specimen.", "preferredTerm": "Goblet Cell Count", "submissionValue": "GOBCE", "synonyms": ["Goblet Cells"]}, {"conceptId": "C189622", "definition": "A relative measurement (ratio or percentage) of the goblet cells to total epithelial cells in a biological specimen.", "preferredTerm": "Goblet Cell to Epithelial Cell Ratio Measurement", "submissionValue": "GOBCEPIC", "synonyms": ["Goblet Cells/Epithelial Cells"]}, {"conceptId": "C176334", "definition": "An evaluation of granuloma(s) in a biological specimen.", "preferredTerm": "Granuloma Assessment", "submissionValue": "GRNLMA", "synonyms": ["Granuloma"]}, {"conceptId": "C166073", "definition": "A measurement of the granzyme B in a biological specimen.", "preferredTerm": "Granzyme B Measurement", "submissionValue": "GZMB", "synonyms": ["C11", "CCPI", "CGL1", "CSPB", "CTLA1", "CTSGL1", "Granzyme B", "HLP", "SECT"]}, {"conceptId": "C181484", "definition": "An evaluation of hepatocellular ballooning in a biological specimen.", "preferredTerm": "Hepatocellular Ballooning Assessment", "submissionValue": "HEPBLLN", "synonyms": ["Ballooning Degeneration", "Hepatocellular Ballooning"]}, {"conceptId": "C112312", "definition": "A measurement of HER2 protein in a biological specimen.", "preferredTerm": "Human Epidermal Growth Factor Receptor 2 Measurement", "submissionValue": "HER2", "synonyms": ["ERBB2", "HER2/NEU", "Human Epidermal Growth Factor Receptor 2"]}, {"conceptId": "C172514", "definition": "A measurement of the hepatocyte growth factor receptor in a biological specimen.", "preferredTerm": "Hepatocyte Growth Factor Receptor Measurement", "submissionValue": "HGFR", "synonyms": ["c-Met", "Hepatocyte Growth Factor Receptor", "MET Proto-Oncogene, Receptor Tyrosine Kinase", "Tyrosine-Protein Kinase Met"]}, {"conceptId": "C154802", "definition": "The determination of the histologic type of cancer in a biological specimen.", "preferredTerm": "Histologic Type of Cancer", "submissionValue": "HISTTYPC", "synonyms": ["Histologic Type of Cancer"]}, {"conceptId": "C124345", "definition": "A measurement of the intercellular adhesion molecule 1 in a biological specimen.", "preferredTerm": "Intercellular Adhesion Molecule 1 Measurement", "submissionValue": "ICAM1", "synonyms": ["CD54", "Intercellular Adhesion Molecule 1"]}, {"conceptId": "C142347", "definition": "A measurement of the intraepidermal nerve fiber density in a biological specimen.", "preferredTerm": "Intraepidermal Nerve Fiber Density", "submissionValue": "IENFDEN", "synonyms": ["Intraepidermal Nerve Fiber Density"]}, {"conceptId": "C181490", "definition": "An evaluation of intraepithelial neoplasia in a biological specimen.", "preferredTerm": "Intraepithelial Neoplasia Assessment", "submissionValue": "IEPINEOA", "synonyms": ["Epithelial Neoplasia", "Intraepithelial Neoplasia"]}, {"conceptId": "C135467", "definition": "An evaluation of intimal arteritis in a biological specimen.", "preferredTerm": "Intimal Arteritis Assessment", "submissionValue": "INTMART", "synonyms": ["Intimal Arteritis"]}, {"conceptId": "C135468", "definition": "An evaluation of interstitial fibrosis in a biological specimen.", "preferredTerm": "Interstitial Fibrosis Assessment", "submissionValue": "INTSFBRO", "synonyms": ["Interstitial Fibrosis"]}, {"conceptId": "C74679", "definition": "A measurement of the iron in a biological specimen.", "preferredTerm": "Iron Measurement", "submissionValue": "IRON", "synonyms": ["FE", "Iron"]}, {"conceptId": "C123557", "definition": "A measurement of the Ki-67 protein in a biological specimen.", "preferredTerm": "Ki67 Measurement", "submissionValue": "KI67", "synonyms": ["Ki-67", "KI67", "MKI67", "pKi-67"]}, {"conceptId": "C106539", "definition": "A measurement of lipocalin-2 in a biological specimen.", "preferredTerm": "Lipocalin-2 Measurement", "submissionValue": "LCN2", "synonyms": ["Lipocalin-2", "Neutrophil Gelatinase-Associated Lipocalin", "NGAL", "Oncogene 24p3"]}, {"conceptId": "C176341", "definition": "A measurement of the lymphocyte function-associated antigen 1 in a biological specimen.", "preferredTerm": "Lymphocyte Function-Associated Antigen 1 Measurement", "submissionValue": "LFA1", "synonyms": ["Lymphocyte Function-Associated Antigen 1"]}, {"conceptId": "C184702", "definition": "An evaluation of lymph node extracapsular spread by the tumor in a biological specimen.", "preferredTerm": "Lymph Node Extracapsular Spread Assessment", "submissionValue": "LNEXCPSD", "synonyms": ["Lymph Node Extracapsular Spread"]}, {"conceptId": "C181493", "definition": "An indication as to whether cancer is present in the lymph nodes.", "preferredTerm": "Lymph Node Involvement Indicator", "submissionValue": "LNININD", "synonyms": ["Lymph Node Involvement Indicator"]}, {"conceptId": "C189620", "definition": "A measurement of the total number of lymph nodes that contain neoplastic cells.", "preferredTerm": "Number of Lymph Nodes Involved With Neoplastic Cells", "submissionValue": "LNINNUM", "synonyms": ["Number of Lymph Nodes Involved", "Number of Lymph Nodes Positive for Neoplastic Cells"]}, {"conceptId": "C124448", "definition": "A condition or state of a lymph node at a particular time.", "preferredTerm": "Lymph Node State", "submissionValue": "LNSTATE", "synonyms": ["Lymph Node State"]}, {"conceptId": "C181480", "definition": "An evaluation of lobular inflammation in a biological specimen.", "preferredTerm": "Lobular Inflammation Assessment", "submissionValue": "LOBLINF", "synonyms": ["Lobular Inflammation"]}, {"conceptId": "C181482", "definition": "An evaluation of large lipogranuloma in a biological specimen.", "preferredTerm": "Large Lipogranuloma Assessment", "submissionValue": "LPGNLMLG", "synonyms": ["Large Lipogranuloma"]}, {"conceptId": "C178035", "definition": "A relative measurement (ratio or percentage) of the lymphocytes to enterocytes within the epithelium of a biological specimen.", "preferredTerm": "Intraepithelial Lymphocytes to Enterocytes Ratio Measurement", "submissionValue": "LYEPIENT", "synonyms": ["Epithelial Lymphocytes/Enterocytes", "Intraepithelial Lymphocytes/Enterocytes"]}, {"conceptId": "C98751", "definition": "A relative measurement (ratio or percentage) of the lymphocytes to total cells in a biological specimen (for example a bone marrow specimen).", "preferredTerm": "Lymphocyte to Total Cell Ratio Measurement", "submissionValue": "LYMCE", "synonyms": ["Lymphocytes/Total Cells"]}, {"conceptId": "C74613", "definition": "A measurement of the malignant lymphocytes in a biological specimen.", "preferredTerm": "Lymphoma Cell Count", "submissionValue": "LYMMCE", "synonyms": ["Lymphoma Cells"]}, {"conceptId": "C186078", "definition": "A relative measurement (ratio or percentage) of the lymphoma cells to total cells in a biological specimen.", "preferredTerm": "Lymphoma Cell to Total Cell Ratio Measurement", "submissionValue": "LYMMCECE", "synonyms": ["Lymphoma Cells/Total Cells"]}, {"conceptId": "C187947", "definition": "A measurement of the lymphoid aggregates in a biological specimen.", "preferredTerm": "Lymphoid Aggregates Measurement", "submissionValue": "LYMPAGG", "synonyms": ["Lymphoid Aggregates"]}, {"conceptId": "C127766", "definition": "An evaluation of lymphatic invasion in a biological specimen.", "preferredTerm": "Lymphatic Invasion Assessment", "submissionValue": "LYMPHINV", "synonyms": ["Lymphatic Invasion"]}, {"conceptId": "C181488", "definition": "An evaluation of Mallory bodies in a biological specimen.", "preferredTerm": "Mallory Body Assessment", "submissionValue": "MALLBOD", "synonyms": ["Mallory Body", "Mallory Hyaline", "Mallory's Hyaline", "Mallory-Denk Body"]}, {"conceptId": "C111247", "definition": "A relative measurement (ratio or percentage) of the mast cells to total cells in a biological specimen.", "preferredTerm": "Mast Cell to Total Cell Ratio Measurement", "submissionValue": "MASTCECE", "synonyms": ["Mast Cells/Total Cells"]}, {"conceptId": "C181481", "definition": "An evaluation of microgranuloma in a biological specimen.", "preferredTerm": "Microgranuloma Assessment", "submissionValue": "MCGNLM", "synonyms": ["Microgranuloma"]}, {"conceptId": "C135469", "definition": "An evaluation of mononuclear cell interstitial inflammation in a biological specimen.", "preferredTerm": "Mononuclear Cell Interstitial Inflammation Assessment", "submissionValue": "MCINTINF", "synonyms": ["Mononuc Cell Interstitial Inflammation"]}, {"conceptId": "C181487", "definition": "An evaluation of megamitochondria in a biological specimen.", "preferredTerm": "Megamitochondria Assessment", "submissionValue": "MEGAMITC", "synonyms": ["Megamitochondria"]}, {"conceptId": "C127628", "definition": "A relative measurement (ratio or percentage) of the maturing erythroid cells to total cells in a biological specimen.", "preferredTerm": "Maturing Erythroid Cell to Total Cell Ratio Measurement", "submissionValue": "MERCECE", "synonyms": ["Erythroid Precursors/Total Cells", "Maturing Erythroid Cells/Total Cells", "Maturing Erythroid/Total Cells", "Total Erythroid Precursors/Total Cells"]}, {"conceptId": "C98754", "definition": "A relative measurement (ratio or percentage ) of the metamyelocytes (small, myelocytic neutrophils with an indented nucleus) to total cells in a biological specimen (for example a bone marrow specimen).", "preferredTerm": "Metamyelocyte to Total Cell Ratio Measurement", "submissionValue": "METAMYCE", "synonyms": ["Metamyelocytes/Total Cells"]}, {"conceptId": "C90424", "definition": "An assessment by microscope (e.g., light, electron, confocal, etc.).", "preferredTerm": "Microscopic Examination", "submissionValue": "MIEXAM", "synonyms": ["Microscopic Examination"]}, {"conceptId": "C135470", "definition": "A measurement of the cells containing mitotic figures in a biological specimen.", "preferredTerm": "Mitotic Figure Assessment", "submissionValue": "MITOFIG", "synonyms": ["Mitotic Figure", "Mitotic Figures"]}, {"conceptId": "C138982", "definition": "An evaluation of the mitotic score in a biological specimen.", "preferredTerm": "Mitotic Rate Score", "submissionValue": "MITOSCR", "synonyms": ["Mitotic Count Score", "Mitotic Score"]}, {"conceptId": "C139094", "definition": "A measurement of the MLH1 mismatch repair protein in a biological specimen.", "preferredTerm": "MutL Homolog 1 Measurement", "submissionValue": "MLH1", "synonyms": ["MutL Homolog 1"]}, {"conceptId": "C186203", "definition": "A measurement of the MLH3 mismatch repair protein in a biological specimen.", "preferredTerm": "MutL Homolog 3 Measurement", "submissionValue": "MLH3", "synonyms": ["MutL Homolog 3"]}, {"conceptId": "C139093", "definition": "The determination of the meaning of protein expression assessments across multiple mismatch repair proteins.", "preferredTerm": "Mismatch Repair Proteins Interpretation", "submissionValue": "MMRPINTP", "synonyms": ["Mismatch Repair Proteins Interpretation"]}, {"conceptId": "C185932", "definition": "An evaluation of the mismatch repair proteins in a biological specimen.", "preferredTerm": "Mismatch Repair Protein Measurement", "submissionValue": "MMRPROT", "synonyms": ["Mismatch Repair Proteins", "MMR Proteins"]}, {"conceptId": "C154757", "definition": "A measurement of the mononuclear cells in a biological specimen.", "preferredTerm": "Mononuclear Cell Count", "submissionValue": "MNC", "synonyms": ["Mononuclear Cells", "Mononucleated Cells"]}, {"conceptId": "C178038", "definition": "An evaluation of infiltration of mononuclear cells in the lamina propria in a biological specimen.", "preferredTerm": "Infiltration of Mononuclear Cells in Lamina Propria Assessment", "submissionValue": "MNCINLLP", "synonyms": ["Infilt of Mono Cells in Lamina Propria", "Infiltration of Mononuclear Cells in Lamina Propria"]}, {"conceptId": "C187677", "definition": "A relative measurement (ratio or percentage) of the monoblasts to total cells in a biological specimen.", "preferredTerm": "Monoblast to Total Cell Ratio Measurement", "submissionValue": "MONOBLCE", "synonyms": ["Monoblasts/Total Cells"]}, {"conceptId": "C98872", "definition": "A relative measurement (ratio or percentage) of the monocytes to total cells in a biological specimen (for example a bone marrow specimen).", "preferredTerm": "Monocytes to Total Cell Ratio Measurement", "submissionValue": "MONOCE", "synonyms": ["Monocytes/Total Cells"]}, {"conceptId": "C181486", "definition": "An evaluation of pigmented macrophages in a biological specimen.", "preferredTerm": "Pigmented Macrophage Assessment", "submissionValue": "MPHGPIG", "synonyms": ["Macrophage, Pigmented", "Pigmented Macrophage"]}, {"conceptId": "C139095", "definition": "A measurement of the MSH2 mismatch repair protein in a biological specimen.", "preferredTerm": "MutS Homolog 2 Measurement", "submissionValue": "MSH2", "synonyms": ["MutS Homolog 2"]}, {"conceptId": "C186204", "definition": "A measurement of the MSH3 mismatch repair protein in a biological specimen.", "preferredTerm": "MutS Homolog 3 Measurement", "submissionValue": "MSH3", "synonyms": ["MutS Homolog 3"]}, {"conceptId": "C139096", "definition": "A measurement of the MSH6 mismatch repair protein in a biological specimen.", "preferredTerm": "MutS Homolog 6 Measurement", "submissionValue": "MSH6", "synonyms": ["MutS Homolog 6"]}, {"conceptId": "C135471", "definition": "An evaluation of mesangial matrix in a biological specimen.", "preferredTerm": "Mesangial Matrix Assessment", "submissionValue": "MSNGMTRX", "synonyms": ["Mesangial Matrix"]}, {"conceptId": "C181479", "definition": "An evaluation of microvesicular steatosis in a biological specimen.", "preferredTerm": "Microvesicular Steatosis Assessment", "submissionValue": "MVSTS", "synonyms": ["Microvesicular Steatosis"]}, {"conceptId": "C98868", "definition": "A relative measurement (ratio or percentage) of the myelocytes to total cells in a biological specimen (for example a bone marrow specimen).", "preferredTerm": "Myelocyte to Total Cell Ratio Measurement", "submissionValue": "MYCYCE", "synonyms": ["Myelocytes/Total Cells"]}, {"conceptId": "C154803", "definition": "An evaluation of myelofibrosis in a biological specimen.", "preferredTerm": "Myelofibrosis Assessment", "submissionValue": "MYFIBROS", "synonyms": ["Myelofibrosis"]}, {"conceptId": "C181492", "definition": "An evaluation of nuclear pleomorphism in a biological specimen.", "preferredTerm": "Nuclear Pleomorphism Assessment", "submissionValue": "NCRPLEOM", "synonyms": ["Nuclear Pleomorphism"]}, {"conceptId": "C154801", "definition": "A measurement of the neoplastic cells in a biological specimen.", "preferredTerm": "Tumor Cell Count", "submissionValue": "NEOCE", "synonyms": ["Neoplastic Cells"]}, {"conceptId": "C123556", "definition": "A relative measurement (ratio or percentage) of the neoplastic cells to total cells in a biological specimen.", "preferredTerm": "Cancer Cellularity Measurement", "submissionValue": "NEOCECE", "synonyms": ["Cancer Cellularity", "Neoplastic Cells/Total Cells", "Tumor Cells/Total Cells"]}, {"conceptId": "C187701", "definition": "A relative measurement (ratio or percentage) of the banded neutrophils to total cells in a biological specimen.", "preferredTerm": "Neutrophil Band Form to Total Cell Ratio Measurement", "submissionValue": "NEUTBCE", "synonyms": ["Neutrophils Band Form/Total Cells"]}, {"conceptId": "C178044", "definition": "An evaluation of neutrophils in the epithelium in a biological specimen.", "preferredTerm": "Neutrophils in Epithelium Assessment", "submissionValue": "NEUTEPI", "synonyms": ["Neutrophils in Epithelium"]}, {"conceptId": "C178043", "definition": "An evaluation of neutrophils in the lamina propria in a biological specimen.", "preferredTerm": "Neutrophils in Lamina Propria Assessment", "submissionValue": "NEUTLP", "synonyms": ["Lamina Propria Neutrophils", "Neutrophils in Lamina Propria"]}, {"conceptId": "C187679", "definition": "A relative measurement (ratio or percentage) of segmented neutrophils to total cells in a biological specimen.", "preferredTerm": "Segmented Neutrophil to Total Cell Ratio Measurement", "submissionValue": "NEUTSGCE", "synonyms": ["Neutrophils, Segmented/Total Cells"]}, {"conceptId": "C123558", "definition": "A measurement of NK2 homeobox 1 protein in a biological specimen.", "preferredTerm": "NK2 Homeobox 1 Measurement", "submissionValue": "NKX2_1", "synonyms": ["NK2 Homeobox 1", "TEBP", "Thyroid Transcription Factor 1", "TTF1"]}, {"conceptId": "C127767", "definition": "A relative measurement (ratio or percentage) of the normal cells to total cells in a biological specimen.", "preferredTerm": "Normal Cell to Total Cell Ratio Measurement", "submissionValue": "NORMCECE", "synonyms": ["Normal Cells/Total Cells"]}, {"conceptId": "C181656", "definition": "A measurement of ecto-5'-nucleotidase in a biological specimen.", "preferredTerm": "Ecto-5'-Nucleotidase Measurement", "submissionValue": "NT5E", "synonyms": ["5'-NT", "5'-Nucleotidase", "5'-Nucleotidase Ecto", "CD73", "E5NT", "Ecto-5'-Nucleotidase"]}, {"conceptId": "C181489", "definition": "An evaluation of glycogenated nuclei in a biological specimen.", "preferredTerm": "Glycogenated Nuclei Assessment", "submissionValue": "NUCLGLCG", "synonyms": ["Glycogenated Nuclei", "Nuclei, Glycogenated"]}, {"conceptId": "C18000", "definition": "An assigned tumor grade based on a defined scoring system.", "preferredTerm": "Histologic Grade", "submissionValue": "OVLTGRD", "synonyms": ["Histologic Grade", "Overall Tumor Grade", "Tumor Grade"]}, {"conceptId": "C179766", "definition": "A measurement of the p16-INK4A in a biological specimen.", "preferredTerm": "p16-INK4A Measurement", "submissionValue": "P16INK4A", "synonyms": ["CDK4I", "Cyclin Dependent Kinase Inhibitor 2A p16", "p16", "p16 Inhibitors of CDK4", "p16-INK4a"]}, {"conceptId": "C186205", "definition": "A measurement of the tumor protein p53 in a biological specimen.", "preferredTerm": "Cellular Tumor Antigen p53 Measurement", "submissionValue": "P53", "synonyms": ["Tumor Protein p53"]}, {"conceptId": "C80204", "definition": "A measurement of the prostatic acid phosphatase in a biological specimen.", "preferredTerm": "Prostatic Acid Phosphatase Measurement", "submissionValue": "PAP", "synonyms": ["Prostatic Acid Phosphatase"]}, {"conceptId": "C142348", "definition": "A measurement of the PAX3-FKHR fusion protein in a biological specimen.", "preferredTerm": "PAX3-FKHR Fusion Protein Measurement", "submissionValue": "PAX3FKHR", "synonyms": ["PAX3-FKHR Fusion Protein"]}, {"conceptId": "C123559", "definition": "A relative measurement (percentage) of in situ component present in a carcinoma compared to the entire malignant cellular proliferation. (NCI)", "preferredTerm": "Percentage of in situ Carcinoma", "submissionValue": "PCTISCA", "synonyms": ["Percentage of In situ Carcinoma"]}, {"conceptId": "C154807", "definition": "A measurement of the programmed death ligand 1 in a biological specimen.", "preferredTerm": "Programmed Death Ligand 1 Measurement", "submissionValue": "PDL1", "synonyms": ["CD274", "PD-L1", "Programmed Cell Death 1 Ligand 1", "Programmed Death Ligand 1"]}, {"conceptId": "C135472", "definition": "A measurement of the platelet and endothelial cell adhesion molecule 1 in a biological specimen.", "preferredTerm": "Platelet Endothelial Cell Adhesion Molecule 1 Measurement", "submissionValue": "PECAM1", "synonyms": ["CD31", "CD31 Antigen", "PECAM", "PECAM-1", "PECAM1", "Platelet And Endothelial Cell Adhesion Molecule 1", "Platelet Endo Cell Adhesion Molecule 1", "Platelet Endothelial Adhesion Molecule"]}, {"conceptId": "C98869", "definition": "A relative measurement (ratio or percentage) of the mature plasma cells (plasmacytes) to total cells in a biological specimen (for example a bone marrow specimen).", "preferredTerm": "Mature Plasma Cell to Total Cell Ratio Measurement", "submissionValue": "PLSTCECE", "synonyms": ["Mature Plasma Cells/Total Cells"]}, {"conceptId": "C184700", "definition": "An evaluation of premalignant cells in a biological specimen.", "preferredTerm": "Premalignant Cell Count", "submissionValue": "PMLIGCE", "synonyms": ["Precancerous Cells", "Premalignant Lesions"]}, {"conceptId": "C184701", "definition": "An examination or assessment of the form and structure of premalignant cells.", "preferredTerm": "Premalignant Cell Morphology Assessment", "submissionValue": "PMLIGCEM", "synonyms": ["Premalignant Cell Morphology"]}, {"conceptId": "C178040", "definition": "An evaluation of polymorphonuclear cells in the epithelium in a biological specimen.", "preferredTerm": "Polymorphonuclear Cells in Epithelium Assessment", "submissionValue": "PMNEPI", "synonyms": ["Polymorphonuclear Cells in Epithelium"]}, {"conceptId": "C178039", "definition": "An evaluation of infiltration of polymorphonuclear cells in the lamina propria in a biological specimen.", "preferredTerm": "Infiltration of Polymorphonuclear Cells in Lamina Propria Assessment", "submissionValue": "PMNINLLP", "synonyms": ["Infilt of PMN Cells in Lamina Propria", "Infiltration of Polymorphonuclear Cells in Lamina Propria"]}, {"conceptId": "C186206", "definition": "A measurement of the PMS1 mismatch repair protein in a biological specimen.", "preferredTerm": "PMS1 Homolog 1 Measurement", "submissionValue": "PMS1", "synonyms": ["PMS1 Homolog 1"]}, {"conceptId": "C139097", "definition": "A measurement of the PMS2 mismatch repair protein in a biological specimen.", "preferredTerm": "PMS1 Homolog 2 Measurement", "submissionValue": "PMS2", "synonyms": ["PMS1 Homolog 2"]}, {"conceptId": "C127634", "definition": "A relative measurement (ratio or percentage) of the proliferating myeloid cells to total cells in a biological specimen.", "preferredTerm": "Proliferating Myeloid Cell to Total Cell Ratio Measurement", "submissionValue": "PMYCECE", "synonyms": ["Proliferating Myeloid Cells/Total Cells"]}, {"conceptId": "C127768", "definition": "An evaluation of perineural invasion in a biological specimen.", "preferredTerm": "Perineural Invasion Assessment", "submissionValue": "PNLINV", "synonyms": ["Perineural Invasion"]}, {"conceptId": "C176339", "definition": "An evaluation of paneth cell metaplasia in a biological specimen.", "preferredTerm": "Paneth Cell Metaplasia Assessment", "submissionValue": "PNTHCEMP", "synonyms": ["Paneth Cell Metaplasia"]}, {"conceptId": "C181483", "definition": "An evaluation of portal inflammation in a biological specimen.", "preferredTerm": "Portal Inflammation Assessment", "submissionValue": "PORTINF", "synonyms": ["Portal Inflammation"]}, {"conceptId": "C117846", "definition": "A measurement of the progesterone receptor protein in a biological specimen.", "preferredTerm": "Progesterone Receptor Measurement", "submissionValue": "PROGESTR", "synonyms": ["NR3C3", "PGR", "PgR", "PR", "Progesterone Receptor"]}, {"conceptId": "C187678", "definition": "A relative measurement (ratio or percentage) of the promonocytes to total cells in a biological specimen (for example a bone marrow specimen).", "preferredTerm": "Promonocyte to Total Cell Ratio Measurement", "submissionValue": "PROMONCE", "synonyms": ["Promonocytes/Total Cells"]}, {"conceptId": "C98773", "definition": "A relative measurement (ratio or percentage) of the promyelocytes (immature myelocytes) to total cells in a biological specimen (for example a bone marrow specimen).", "preferredTerm": "Promyelocyte to Total Cell Ratio Measurement", "submissionValue": "PROMYCE", "synonyms": ["Promyelocytes/Total Cells"]}, {"conceptId": "C135473", "definition": "An evaluation of peritubular capillaritis in a biological specimen.", "preferredTerm": "Peritubular Capillaritis Assessment", "submissionValue": "PTBCPLTS", "synonyms": ["Peritubular Capillaritis"]}, {"conceptId": "C147470", "definition": "A measurement of the phosphatase and tensin homolog in a biological specimen.", "preferredTerm": "Phosphatase and Tensin Homolog Measurement", "submissionValue": "PTEN", "synonyms": ["Phosphatase and Tensin Homolog"]}, {"conceptId": "C189346", "definition": "A measurement of the pyknotic cells in a biological specimen.", "preferredTerm": "Pyknotic Cell Count", "submissionValue": "PYKCE", "synonyms": ["Karyopyknotic Cells", "Pyknotic Cells"]}, {"conceptId": "C178047", "definition": "A measurement of the polysaccharides and mucosubstances in a biological specimen.", "preferredTerm": "Polysaccharides and Mucosubstances Measurement", "submissionValue": "PYSACMSB", "synonyms": ["Polysaccharides and Mucosubstances"]}, {"conceptId": "C187680", "definition": "A relative measurement (ratio or percentage) of reticulocytes to total cells in a biological specimen.", "preferredTerm": "Reticulocyte to Total Cell Ratio Measurement", "submissionValue": "RETICE", "synonyms": ["Reticulocytes/Total Cells"]}, {"conceptId": "C154804", "definition": "A measurement of the ROS proto-oncogene 1 protein in a biological specimen.", "preferredTerm": "ROS1 Protein Measurement", "submissionValue": "ROS1", "synonyms": ["ROS Proto-oncogene 1 Protein", "ROS1 Protein"]}, {"conceptId": "C127769", "definition": "A measurement of the S100 calcium binding protein A7 in a biological specimen.", "preferredTerm": "S100 Calcium Binding Protein A7 Measurement", "submissionValue": "S100A7", "synonyms": ["S100 Calcium Binding Protein A7"]}, {"conceptId": "C177569", "definition": "The anatomical region or plane containing neoplastic tissue that has been left outside the boundary of a resected specimen within the patient.", "preferredTerm": "Anatomic Site for Involved Surgical Margin", "submissionValue": "SGMGIREG", "synonyms": ["Surgical Margin Involvement Region"]}, {"conceptId": "C123560", "definition": "The determination of the presence of actual or potential neoplastic tissue which has been left outside the boundary of a resected specimen within the patient. (NCI)", "preferredTerm": "Surgical Margins Status", "submissionValue": "SGMGSTAT", "synonyms": ["Surgical Margins Status"]}, {"conceptId": "C111317", "definition": "A measurement of the total smooth muscle antibody in a biological specimen.", "preferredTerm": "Smooth Muscle Antibody Measurement", "submissionValue": "SMUSCAB", "synonyms": ["Anti-Smooth Muscle Antibody", "Smooth Muscle Antibody"]}, {"conceptId": "C127770", "definition": "A relative measurement (ratio or percentage) of the stromal cells to total cells in a biological specimen.", "preferredTerm": "Stromal Cell to Total Cell Ratio Measurement", "submissionValue": "STRMCECE", "synonyms": ["Stromal Cells/Total Cells"]}, {"conceptId": "C181477", "definition": "An evaluation of the amount or degree of steatosis (fatty tissue) in a biological specimen.", "preferredTerm": "Steatosis Extent", "submissionValue": "STSEXT", "synonyms": ["Steatosis Extent", "Steatosis Grade"]}, {"conceptId": "C181478", "definition": "An evaluation of the predominant distribution pattern of steatosis (fatty tissue) in a biological specimen.", "preferredTerm": "Steatosis Location", "submissionValue": "STSLOC", "synonyms": ["Steatosis Location"]}, {"conceptId": "C181491", "definition": "An evaluation of tubule formation in a biological specimen.", "preferredTerm": "Tubule Formation Assessment", "submissionValue": "TBLFRM", "synonyms": ["Tubule Formation"]}, {"conceptId": "C117861", "definition": "A measurement of the transforming growth factor beta 1 in a biological specimen.", "preferredTerm": "Transforming Growth Factor Beta 1 Measurement", "submissionValue": "TGFB1", "synonyms": ["Transforming Growth Factor Beta 1"]}, {"conceptId": "C41145", "definition": "The dimension between two surfaces of an object, usually the smallest dimension as opposed to the width or the length.", "preferredTerm": "Thickness", "submissionValue": "THICK", "synonyms": ["Thickness"]}, {"conceptId": "C176340", "definition": "The total number of tissue samples in which a pathological abnormality has been observed.", "preferredTerm": "Number of Abnormal Tissue Samples", "submissionValue": "TISABNUM", "synonyms": ["Number of Abnormal Tissue Samples"]}, {"conceptId": "C187951", "definition": "An evaluation of the morphologic appearance at the point where the tumor meets adjacent, non-tumor tissue.", "preferredTerm": "Tumor Margin Configuration Assessment", "submissionValue": "TMBRDCFG", "synonyms": ["Invasive Margin", "Tumor Border Configuration", "Tumor Margin Configuration"]}, {"conceptId": "C187949", "definition": "An evaluation of the tissue architecture of the tumor in comparison to the non-pathological tissue the tumor arose from.", "preferredTerm": "Tumor Differentiation Assessment", "submissionValue": "TMDIFF", "synonyms": ["Tumor Differentiation"]}, {"conceptId": "C187950", "definition": "An evaluation of the tumor infiltration pattern in a biological specimen.", "preferredTerm": "Tumor Infiltration Pattern Assessment", "submissionValue": "TMINLPTN", "synonyms": ["Tumor Infiltration Pattern"]}, {"conceptId": "C154800", "definition": "A relative measurement (ratio or percentage) of the transitional cells to the tumor cells in a biological specimen.", "preferredTerm": "Transitional Cell to Tumor Cell Ratio Measurement", "submissionValue": "TRCETMCE", "synonyms": ["Transitional Cells/Tumor Cells"]}, {"conceptId": "C135474", "definition": "An evaluation of tubular atrophy in a biological specimen.", "preferredTerm": "Tubular Atrophy Assessment", "submissionValue": "TUBATRO", "synonyms": ["Tubular Atrophy"]}, {"conceptId": "C135475", "definition": "An evaluation of tubulitis in a biological specimen.", "preferredTerm": "Tubulitis Assessment", "submissionValue": "TUBULTIS", "synonyms": ["Tubulitis"]}, {"conceptId": "C178046", "definition": "An evaluation of tumor regression in a biological specimen.", "preferredTerm": "Tumor Regression Assessment", "submissionValue": "TUMRGR", "synonyms": ["Tumor Regression"]}, {"conceptId": "C176333", "definition": "An evaluation of ulceration in a biological specimen.", "preferredTerm": "Ulceration Assessment", "submissionValue": "ULCER", "synonyms": ["Ulceration"]}, {"conceptId": "C127772", "definition": "An evaluation of vascular invasion in a biological specimen.", "preferredTerm": "Vascular Invasion Assessment", "submissionValue": "VASINV", "synonyms": ["Vascular Invasion"]}, {"conceptId": "C135476", "definition": "An evaluation of the fibrointimal thickening of vessels in a biological specimen.", "preferredTerm": "Vascular Fibrous Intimal Thickening Assessment", "submissionValue": "VFBINTMT", "synonyms": ["Vascular Fibrous Intimal Thickening"]}]}