{"_links": {"parentPackage": {"href": "/mdr/ct/packages/sdtmct-2022-09-30", "title": "SDTM Controlled Terminology Package 51 Effective 2022-09-30", "type": "Terminology"}, "priorVersion": {"href": "/mdr/ct/packages/sdtmct-2022-06-24/codelists/C135685", "title": "CDISC Questionnaire CGI Generic Modification Version Test Name Terminology", "type": "Code List"}, "rootItem": {"href": "/mdr/root/ct/sdtmct/codelists/C135685", "title": "Version-agnostic anchor resource for codelist C135685", "type": "Root Value Domain"}, "self": {"href": "/mdr/ct/packages/sdtmct-2022-09-30/codelists/C135685", "title": "CDISC Questionnaire CGI Generic Modification Version Test Name Terminology", "type": "Code List"}}, "conceptId": "C135685", "definition": "Clinical Global Impression Generic Modification Version test name.", "extensible": "false", "name": "Clinical Global Impression Generic Modification Version Questionnaire Test Name", "preferredTerm": "CDISC Questionnaire CGI Generic Modification Version Test Name Terminology", "submissionValue": "CGI02TN", "synonyms": ["Clinical Global Impression Generic Modification Version Questionnaire Test Name"], "terms": [{"conceptId": "C135815", "definition": "Clinical Global Impression - Rate total change whether or not, in your judgement, it is due entirely to drug treatment. Compared to the subject's condition <at previously assessed protocol specified time point>, how much has the subject changed?", "preferredTerm": "CGI Generic Modification Version - Change", "submissionValue": "CGI02-Change", "synonyms": ["CGI02-Change"]}, {"conceptId": "C135816", "definition": "Clinical Global Impression - Rate total improvement whether or not, in your judgement, it is due entirely to drug treatment. Compared to the subject's condition <at previously assessed protocol specified time point>, how much has the subject improved?", "preferredTerm": "CGI Generic Modification Version - Improvement", "submissionValue": "CGI02-Improvement", "synonyms": ["CGI02-Improvement"]}, {"conceptId": "C135814", "definition": "Clinical Global Impression - Considering your total clinical experience with this particular population, how severe is the subject's condition at this time?", "preferredTerm": "CGI Generic Modification Version - Severity", "submissionValue": "CGI02-Severity", "synonyms": ["CGI02-Severity"]}]}