{"_links": {"parentPackage": {"href": "/mdr/ct/packages/sdtmct-2022-09-30", "title": "SDTM Controlled Terminology Package 51 Effective 2022-09-30", "type": "Terminology"}, "priorVersion": {"href": "/mdr/ct/packages/sdtmct-2022-06-24/codelists/C141673", "title": "CDISC Questionnaire DRRI-2 Test Code Terminology", "type": "Code List"}, "rootItem": {"href": "/mdr/root/ct/sdtmct/codelists/C141673", "title": "Version-agnostic anchor resource for codelist C141673", "type": "Root Value Domain"}, "self": {"href": "/mdr/ct/packages/sdtmct-2022-09-30/codelists/C141673", "title": "CDISC Questionnaire DRRI-2 Test Code Terminology", "type": "Code List"}}, "conceptId": "C141673", "definition": "Deployment Risk and Resilience Inventory-2 test code.", "extensible": "false", "name": "Deployment Risk and Resilience Inventory-2 Questionnaire Test Code", "preferredTerm": "CDISC Questionnaire DRRI-2 Test Code Terminology", "submissionValue": "DRRI1TC", "synonyms": ["Deployment Risk and Resilience Inventory-2 Questionnaire Test Code"], "terms": [{"conceptId": "C141867", "definition": "Deployment Risk & Resilience Inventory-2 - Before deployment: someone close to me died.", "preferredTerm": "DRRI-2 - A: Someone Close to Me Died", "submissionValue": "DRRI1A01", "synonyms": ["DRRI1-A: Someone Close to Me Died"]}, {"conceptId": "C141868", "definition": "Deployment Risk & Resilience Inventory-2 - Before deployment: I went through a divorce or was left by a significant other.", "preferredTerm": "DRRI-2 - A: Went Through Divorce/Was Left", "submissionValue": "DRRI1A02", "synonyms": ["DRRI1-A: Went Through Divorce/Was Left"]}, {"conceptId": "C141869", "definition": "Deployment Risk & Resilience Inventory-2 - Before deployment: I was robbed or had my home broken into.", "preferredTerm": "DRRI-2 - A: Robbed/Had My Home Broken Into", "submissionValue": "DRRI1A03", "synonyms": ["DRRI1-A: Robbed/Had My Home Broken Into"]}, {"conceptId": "C141870", "definition": "Deployment Risk & Resilience Inventory-2 - Before deployment: I saw or heard physical fighting between my parents or caregivers.", "preferredTerm": "DRRI-2 - A: Saw/Heard Physical Fight Parent", "submissionValue": "DRRI1A04", "synonyms": ["DRRI1-A: Saw/Heard Physical Fight Parent"]}, {"conceptId": "C141871", "definition": "Deployment Risk & Resilience Inventory-2 - Before deployment: I was physically punished by a parent or primary caregiver.", "preferredTerm": "DRRI-2 - A: Physically Punished by Parent", "submissionValue": "DRRI1A05", "synonyms": ["DRRI1-A: Physically Punished by Parent"]}, {"conceptId": "C141872", "definition": "Deployment Risk & Resilience Inventory-2 - Before deployment: I experienced unwanted sexual activity as a result of force, threat of harm, or manipulation during childhood (before age 18).", "preferredTerm": "DRRI-2 - A: Unwanted Sex Activity Childhood", "submissionValue": "DRRI1A06", "synonyms": ["DRRI1-A: Unwanted Sex Activity Childhood"]}, {"conceptId": "C141873", "definition": "Deployment Risk & Resilience Inventory-2 - Before deployment: I experienced unwanted sexual activity as a result of force, threat of harm, or manipulation during adulthood (age 18 or later).", "preferredTerm": "DRRI-2 - A: Unwanted Sex Activity Adulthood", "submissionValue": "DRRI1A07", "synonyms": ["DRRI1-A: Unwanted Sex Activity Adulthood"]}, {"conceptId": "C141874", "definition": "Deployment Risk & Resilience Inventory-2 - Before deployment: I experienced a natural disaster (for example, a hurricane), a fire, or an accident in which I or someone close to me was hurt or had serious property damage.", "preferredTerm": "DRRI-2 - A: Experienced Natural Disaster", "submissionValue": "DRRI1A08", "synonyms": ["DRRI1-A: Experienced Natural Disaster"]}, {"conceptId": "C141875", "definition": "Deployment Risk & Resilience Inventory-2 - Before deployment: someone close to me experienced a serious illness, injury, or mental health problem (for example, cancer, alcohol/drug problem).", "preferredTerm": "DRRI-2 - A: Someone Close Serious Illness", "submissionValue": "DRRI1A09", "synonyms": ["DRRI1-A: Someone Close Serious Illness"]}, {"conceptId": "C141876", "definition": "Deployment Risk & Resilience Inventory-2 - Before deployment: I witnessed someone being seriously assaulted or killed.", "preferredTerm": "DRRI-2 - A: Witnessed Someone Assaulted", "submissionValue": "DRRI1A10", "synonyms": ["DRRI1-A: Witnessed Someone Assaulted"]}, {"conceptId": "C141877", "definition": "Deployment Risk & Resilience Inventory-2 - Before deployment: I lost my job or had serious trouble finding a job.", "preferredTerm": "DRRI-2 - A: Lost My Job/Trouble Finding Job", "submissionValue": "DRRI1A11", "synonyms": ["DRRI1-A: Lost My Job/Trouble Finding Job"]}, {"conceptId": "C141878", "definition": "Deployment Risk & Resilience Inventory-2 - Before deployment: I was emotionally mistreated (for example, ignored or repeatedly told I was no good).", "preferredTerm": "DRRI-2 - A: Emotionally Mistreated", "submissionValue": "DRRI1A12", "synonyms": ["DRRI1-A: Emotionally Mistreated"]}, {"conceptId": "C141879", "definition": "Deployment Risk & Resilience Inventory-2 - Before deployment: I experienced serious financial problems.", "preferredTerm": "DRRI-2 - A: Serious Financial Problems", "submissionValue": "DRRI1A13", "synonyms": ["DRRI1-A: Serious Financial Problems"]}, {"conceptId": "C141880", "definition": "Deployment Risk & Resilience Inventory-2 - Before deployment: I experienced serious physical or mental health problems.", "preferredTerm": "DRRI-2 - A: Serious Physical Health Problem", "submissionValue": "DRRI1A14", "synonyms": ["DRRI1-A: Serious Physical Health Problem"]}, {"conceptId": "C141881", "definition": "Deployment Risk & Resilience Inventory-2 - Before deployment: I participated in dangerous military duties.", "preferredTerm": "DRRI-2 - A: Dangerous Military Duties", "submissionValue": "DRRI1A15", "synonyms": ["DRRI1-A: Dangerous Military Duties"]}, {"conceptId": "C141882", "definition": "Deployment Risk & Resilience Inventory-2 - Before deployment: I was seriously physically injured by another person (for example, hit or beaten up) during childhood (before age 18).", "preferredTerm": "DRRI-2 - A: Injured by Person - Childhood", "submissionValue": "DRRI1A16", "synonyms": ["DRRI1-A: Injured by Person - Childhood"]}, {"conceptId": "C141883", "definition": "Deployment Risk & Resilience Inventory-2 - Before deployment: I was seriously physically injured by another person (for example, hit or beaten up) during adulthood (age 18 or later).", "preferredTerm": "DRRI-2 - A: Injured by Person - Adulthood", "submissionValue": "DRRI1A17", "synonyms": ["DRRI1-A: Injured by Person - Adulthood"]}, {"conceptId": "C141884", "definition": "Deployment Risk & Resilience Inventory-2 - Before deployment: I experienced stressful legal problems (for example, being sued, suing someone else, or being in a custody battle).", "preferredTerm": "DRRI-2 - A: Stressful Legal Problems", "submissionValue": "DRRI1A18", "synonyms": ["DRRI1-A: Stressful Legal Problems"]}, {"conceptId": "C141885", "definition": "Deployment Risk & Resilience Inventory-2 - During childhood: I got along well with my family members.", "preferredTerm": "DRRI-2 - B: Got Along Well With My Family", "submissionValue": "DRRI1B01", "synonyms": ["DRRI1-B: Got Along Well With My Family"]}, {"conceptId": "C141886", "definition": "Deployment Risk & Resilience Inventory-2 - During childhood: I felt like I fit in with my family.", "preferredTerm": "DRRI-2 - B: Felt Like I Fit in With Family", "submissionValue": "DRRI1B02", "synonyms": ["DRRI1-B: Felt Like I Fit in With Family"]}, {"conceptId": "C141887", "definition": "Deployment Risk & Resilience Inventory-2 - During childhood: family members knew what I thought and how I felt about things.", "preferredTerm": "DRRI-2 - B: Family Knew What I Thought/Felt", "submissionValue": "DRRI1B03", "synonyms": ["DRRI1-B: Family Knew What I Thought/Felt"]}, {"conceptId": "C141888", "definition": "Deployment Risk & Resilience Inventory-2 - During childhood: I felt like my contributions to my family were appreciated.", "preferredTerm": "DRRI-2 - B: Contribution Family Appreciated", "submissionValue": "DRRI1B04", "synonyms": ["DRRI1-B: Contribution Family Appreciated"]}, {"conceptId": "C141889", "definition": "Deployment Risk & Resilience Inventory-2 - During childhood: I shared many common interests and activities with family members.", "preferredTerm": "DRRI-2 - B: Shared Interests With Family", "submissionValue": "DRRI1B05", "synonyms": ["DRRI1-B: Shared Interests With Family"]}, {"conceptId": "C141890", "definition": "Deployment Risk & Resilience Inventory-2 - During childhood: my opinions were valued by other family members.", "preferredTerm": "DRRI-2 - B: Opinions Were Valued by Family", "submissionValue": "DRRI1B06", "synonyms": ["DRRI1-B: Opinions Were Valued by Family"]}, {"conceptId": "C141891", "definition": "Deployment Risk & Resilience Inventory-2 - During childhood: I was affectionate with family members.", "preferredTerm": "DRRI-2 - B: I Was Affectionate With Family", "submissionValue": "DRRI1B07", "synonyms": ["DRRI1-B: I Was Affectionate With Family"]}, {"conceptId": "C141892", "definition": "Deployment Risk & Resilience Inventory-2 - During childhood: I played an important role in my family.", "preferredTerm": "DRRI-2 - B: Played Important Role in Family", "submissionValue": "DRRI1B08", "synonyms": ["DRRI1-B: Played Important Role in Family"]}, {"conceptId": "C141893", "definition": "Deployment Risk & Resilience Inventory-2 - During childhood: I spent as much of my free time with family members as possible.", "preferredTerm": "DRRI-2 - B: Spent My Free Time With Family", "submissionValue": "DRRI1B09", "synonyms": ["DRRI1-B: Spent My Free Time With Family"]}, {"conceptId": "C141894", "definition": "Deployment Risk & Resilience Inventory-2 - During childhood: family members told me when they were having a problem.", "preferredTerm": "DRRI-2 - B: Family Told Me When Problem", "submissionValue": "DRRI1B10", "synonyms": ["DRRI1-B: Family Told Me When Problem"]}, {"conceptId": "C141895", "definition": "Deployment Risk & Resilience Inventory-2 - During childhood: I could be myself around family members.", "preferredTerm": "DRRI-2 - B: I Could Be Myself Around Family", "submissionValue": "DRRI1B11", "synonyms": ["DRRI1-B: I Could Be Myself Around Family"]}, {"conceptId": "C141896", "definition": "Deployment Risk & Resilience Inventory-2 - During childhood: my input was sought on important family decisions.", "preferredTerm": "DRRI-2 - B: Input Sought Family Decisions", "submissionValue": "DRRI1B12", "synonyms": ["DRRI1-B: Input Sought Family Decisions"]}, {"conceptId": "C141897", "definition": "Deployment Risk & Resilience Inventory-2 - During deployment: the climate was uncomfortable.", "preferredTerm": "DRRI-2 - C: Climate Was Uncomfortable", "submissionValue": "DRRI1C01", "synonyms": ["DRRI1-C: Climate Was Uncomfortable"]}, {"conceptId": "C141898", "definition": "Deployment Risk & Resilience Inventory-2 - During deployment: I had to deal with annoying animals, insects, or plants.", "preferredTerm": "DRRI-2 - C: Deal With Annoying Animals", "submissionValue": "DRRI1C02", "synonyms": ["DRRI1-C: Deal With Annoying Animals"]}, {"conceptId": "C141899", "definition": "Deployment Risk & Resilience Inventory-2 - During deployment: the food I had to eat was of very poor quality (for example, bad or old MREs).", "preferredTerm": "DRRI-2 - C: Food Was of Very Poor Quality", "submissionValue": "DRRI1C03", "synonyms": ["DRRI1-C: Food Was of Very Poor Quality"]}, {"conceptId": "C141900", "definition": "Deployment Risk & Resilience Inventory-2 - During deployment: the conditions I lived in were extremely unsanitary.", "preferredTerm": "DRRI-2 - C: Conditions Extremely Unsanitary", "submissionValue": "DRRI1C04", "synonyms": ["DRRI1-C: Conditions Extremely Unsanitary"]}, {"conceptId": "C141901", "definition": "Deployment Risk & Resilience Inventory-2 - During deployment: I didn't have access to bathrooms or showers when I needed them.", "preferredTerm": "DRRI-2 - C: Didn't Have Bathrooms", "submissionValue": "DRRI1C05", "synonyms": ["DRRI1-C: Didn't Have Bathrooms"]}, {"conceptId": "C141902", "definition": "Deployment Risk & Resilience Inventory-2 - During deployment: I wasn't able to get as much privacy as I needed.", "preferredTerm": "DRRI-2 - C: Wasn't Able to Get Privacy", "submissionValue": "DRRI1C06", "synonyms": ["DRRI1-C: Wasn't Able to Get Privacy"]}, {"conceptId": "C141903", "definition": "Deployment Risk & Resilience Inventory-2 - During deployment: I was exposed to awful smells.", "preferredTerm": "DRRI-2 - C: I Was Exposed to Awful Smells", "submissionValue": "DRRI1C07", "synonyms": ["DRRI1-C: I Was Exposed to Awful Smells"]}, {"conceptId": "C141904", "definition": "Deployment Risk & Resilience Inventory-2 - During deployment: I was subjected to loud noises.", "preferredTerm": "DRRI-2 - C: I Was Subjected to Loud Noises", "submissionValue": "DRRI1C08", "synonyms": ["DRRI1-C: I Was Subjected to Loud Noises"]}, {"conceptId": "C141905", "definition": "Deployment Risk & Resilience Inventory-2 - During deployment: my daily activities were restricted because of local religious or ethnic customs.", "preferredTerm": "DRRI-2 - C: Restricted Because Local Custom", "submissionValue": "DRRI1C09", "synonyms": ["DRRI1-C: Restricted Because Local Custom"]}, {"conceptId": "C141906", "definition": "Deployment Risk & Resilience Inventory-2 - During deployment: I wasn't able to get rest when I needed it.", "preferredTerm": "DRRI-2 - C: Wasn't Able to Rest", "submissionValue": "DRRI1C10", "synonyms": ["DRRI1-C: Wasn't Able to Rest"]}, {"conceptId": "C141907", "definition": "Deployment Risk & Resilience Inventory-2 - During deployment: I wasn't able to contact home when I needed to.", "preferredTerm": "DRRI-2 - C: Wasn't Able to Contact Home", "submissionValue": "DRRI1C11", "synonyms": ["DRRI1-C: Wasn't Able to Contact Home"]}, {"conceptId": "C141908", "definition": "Deployment Risk & Resilience Inventory-2 - During deployment: I had to hassle with putting on and taking off heavy or annoying gear.", "preferredTerm": "DRRI-2 - C: Hassle With Heavy/Annoying Gear", "submissionValue": "DRRI1C12", "synonyms": ["DRRI1-C: Hassle With Heavy/Annoying Gear"]}, {"conceptId": "C141909", "definition": "Deployment Risk & Resilience Inventory-2 - During deployment: I was not allowed to do the things I needed to do to get my job done.", "preferredTerm": "DRRI-2 - C: Not Allowed to Get Job Done", "submissionValue": "DRRI1C13", "synonyms": ["DRRI1-C: Not Allowed to Get Job Done"]}, {"conceptId": "C141910", "definition": "Deployment Risk & Resilience Inventory-2 - During deployment: I did not have adequate shelter from uncomfortable living conditions (for example, heat, cold, wet, etc.).", "preferredTerm": "DRRI-2 - C: Not Have Adequate Shelter", "submissionValue": "DRRI1C14", "synonyms": ["DRRI1-C: Not Have Adequate Shelter"]}, {"conceptId": "C141911", "definition": "Deployment Risk & Resilience Inventory-2 - During deployment: I went on combat patrols or missions.", "preferredTerm": "DRRI-2 - D: Went on Combat Patrols/Missions", "submissionValue": "DRRI1D01", "synonyms": ["DRRI1-D: Went on Combat Patrols/Missions"]}, {"conceptId": "C141912", "definition": "Deployment Risk & Resilience Inventory-2 - During deployment: I took part in an assault on entrenched or fortified positions that involved naval and/or land forces.", "preferredTerm": "DRRI-2 - D: Assault on Entrenched Positions", "submissionValue": "DRRI1D02", "synonyms": ["DRRI1-D: Assault on Entrenched Positions"]}, {"conceptId": "C141913", "definition": "Deployment Risk & Resilience Inventory-2 - During deployment: I personally witnessed someone from my unit or an ally unit being seriously wounded or killed.", "preferredTerm": "DRRI-2 - D: Witnessed Someone Unit Wounded", "submissionValue": "DRRI1D03", "synonyms": ["DRRI1-D: Witnessed Someone Unit Wounded"]}, {"conceptId": "C141914", "definition": "Deployment Risk & Resilience Inventory-2 - During deployment: I encountered land or water mines, booby traps, or roadside bombs (for example, IEDs).", "preferredTerm": "DRRI-2 - D: Encountered Land Mines", "submissionValue": "DRRI1D04", "synonyms": ["DRRI1-D: Encountered Land Mines"]}, {"conceptId": "C141915", "definition": "Deployment Risk & Resilience Inventory-2 - During deployment: I was exposed to hostile incoming fire.", "preferredTerm": "DRRI-2 - D: Exposed Hostile Incoming Fire", "submissionValue": "DRRI1D05", "synonyms": ["DRRI1-D: Exposed Hostile Incoming Fire"]}, {"conceptId": "C141916", "definition": "Deployment Risk & Resilience Inventory-2 - During deployment: I was exposed to \"friendly\" fire.", "preferredTerm": "DRRI-2 - D: Exposed to Friendly Fire", "submissionValue": "DRRI1D06", "synonyms": ["DRRI1-D: Exposed to Friendly Fire"]}, {"conceptId": "C141917", "definition": "Deployment Risk & Resilience Inventory-2 - During deployment: I was in a vehicle (for example, a \"humvee\", helicopter, or boat) or part of a convoy that was attacked.", "preferredTerm": "DRRI-2 - D: Vehicle/Part of Convoy Attacked", "submissionValue": "DRRI1D07", "synonyms": ["DRRI1-D: Vehicle/Part of Convoy Attacked"]}, {"conceptId": "C141918", "definition": "Deployment Risk & Resilience Inventory-2 - During deployment: I was part of a land or naval artillery unit that fired on enemy combatants.", "preferredTerm": "DRRI-2 - D: Part of Unit Fired on Enemy", "submissionValue": "DRRI1D08", "synonyms": ["DRRI1-D: Part of Unit Fired on Enemy"]}, {"conceptId": "C141919", "definition": "Deployment Risk & Resilience Inventory-2 - During deployment: I personally witnessed enemy combatants being seriously wounded or killed.", "preferredTerm": "DRRI-2 - D: Witnessed Enemy Wounded/Killed", "submissionValue": "DRRI1D09", "synonyms": ["DRRI1-D: Witnessed Enemy Wounded/Killed"]}, {"conceptId": "C141920", "definition": "Deployment Risk & Resilience Inventory-2 - During deployment: I personally witnessed civilians (for example, women and children) being seriously wounded or killed.", "preferredTerm": "DRRI-2 - D: Witnessed Civilians Wounded", "submissionValue": "DRRI1D10", "synonyms": ["DRRI1-D: Witnessed Civilians Wounded"]}, {"conceptId": "C141921", "definition": "Deployment Risk & Resilience Inventory-2 - During deployment: I was injured in a combat-related incident.", "preferredTerm": "DRRI-2 - D: Injured Combat-Related Incident", "submissionValue": "DRRI1D11", "synonyms": ["DRRI1-D: Injured Combat-Related Incident"]}, {"conceptId": "C141922", "definition": "Deployment Risk & Resilience Inventory-2 - During deployment: I fired my weapon at enemy combatants.", "preferredTerm": "DRRI-2 - D: Fired My Weapon Enemy Combatant", "submissionValue": "DRRI1D12", "synonyms": ["DRRI1-D: Fired My Weapon Enemy Combatant"]}, {"conceptId": "C141923", "definition": "Deployment Risk & Resilience Inventory-2 - During deployment: I think I wounded or killed someone during combat operations.", "preferredTerm": "DRRI-2 - D: Think I Wounded/Killed Someone", "submissionValue": "DRRI1D13", "synonyms": ["DRRI1-D: Think I Wounded/Killed Someone"]}, {"conceptId": "C141924", "definition": "Deployment Risk & Resilience Inventory-2 - During deployment: I was involved in locating or disarming explosive devices.", "preferredTerm": "DRRI-2 - D: Locating Explosive Devices", "submissionValue": "DRRI1D14", "synonyms": ["DRRI1-D: Locating Explosive Devices"]}, {"conceptId": "C141925", "definition": "Deployment Risk & Resilience Inventory-2 - During deployment: I was involved in searching or clearing homes, buildings, or other locations.", "preferredTerm": "DRRI-2 - D: Searching Homes/Buildings", "submissionValue": "DRRI1D15", "synonyms": ["DRRI1-D: Searching Homes/Buildings"]}, {"conceptId": "C141926", "definition": "Deployment Risk & Resilience Inventory-2 - During deployment: I participated in hand-to-hand combat.", "preferredTerm": "DRRI-2 - D: Participate Hand-to-hand Combat", "submissionValue": "DRRI1D16", "synonyms": ["DRRI1-D: Participate Hand-to-hand Combat"]}, {"conceptId": "C141927", "definition": "Deployment Risk & Resilience Inventory-2 - During deployment: I was involved in searching and/or disarming potential enemy combatants.", "preferredTerm": "DRRI-2 - D: Search/Disarm Potential Enemy", "submissionValue": "DRRI1D17", "synonyms": ["DRRI1-D: Search/Disarm Potential Enemy"]}, {"conceptId": "C141928", "definition": "Deployment Risk & Resilience Inventory-2 - During deployment: I saw people begging for food.", "preferredTerm": "DRRI-2 - E: Saw People Begging for Food", "submissionValue": "DRRI1E01", "synonyms": ["DRRI1-E: Saw People Begging for Food"]}, {"conceptId": "C141929", "definition": "Deployment Risk & Resilience Inventory-2 - During deployment: I saw refugees who had lost their homes or belongings.", "preferredTerm": "DRRI-2 - E: Saw Refugees Who Had Lost Homes", "submissionValue": "DRRI1E02", "synonyms": ["DRRI1-E: Saw Refugees Who Had Lost Homes"]}, {"conceptId": "C141930", "definition": "Deployment Risk & Resilience Inventory-2 - During deployment: I observed homes or communities that had been destroyed.", "preferredTerm": "DRRI-2 - E: Observed Homes Been Destroyed", "submissionValue": "DRRI1E03", "synonyms": ["DRRI1-E: Observed Homes Been Destroyed"]}, {"conceptId": "C141931", "definition": "Deployment Risk & Resilience Inventory-2 - During deployment: I took care of injured or dying people.", "preferredTerm": "DRRI-2 - E: Took Care Injured/Dying People", "submissionValue": "DRRI1E04", "synonyms": ["DRRI1-E: Took Care Injured/Dying People"]}, {"conceptId": "C141932", "definition": "Deployment Risk & Resilience Inventory-2 - During deployment: I saw civilians after they had been severely wounded or disfigured.", "preferredTerm": "DRRI-2 - E: Saw Civilians After Wounded", "submissionValue": "DRRI1E05", "synonyms": ["DRRI1-E: Saw Civilians After Wounded"]}, {"conceptId": "C141933", "definition": "Deployment Risk & Resilience Inventory-2 - During deployment: I saw enemy combatants after they had been severely wounded or disfigured.", "preferredTerm": "DRRI-2 - E: Saw Combatants Had Been Wounded", "submissionValue": "DRRI1E06", "synonyms": ["DRRI1-E: Saw Combatants Had Been Wounded"]}, {"conceptId": "C141934", "definition": "Deployment Risk & Resilience Inventory-2 - During deployment: I saw Americans or allies after they had been severely wounded or disfigured.", "preferredTerm": "DRRI-2 - E: Saw Americans Had Been Wounded", "submissionValue": "DRRI1E07", "synonyms": ["DRRI1-E: Saw Americans Had Been Wounded"]}, {"conceptId": "C141935", "definition": "Deployment Risk & Resilience Inventory-2 - During deployment: I saw the bodies of dead enemy combatants.", "preferredTerm": "DRRI-2 - E: Saw Bodies of Dead Enemy", "submissionValue": "DRRI1E08", "synonyms": ["DRRI1-E: Saw Bodies of Dead Enemy"]}, {"conceptId": "C141936", "definition": "Deployment Risk & Resilience Inventory-2 - During deployment: I saw the bodies of dead Americans or allies.", "preferredTerm": "DRRI-2 - E: Saw Bodies of Dead Americans", "submissionValue": "DRRI1E09", "synonyms": ["DRRI1-E: Saw Bodies of Dead Americans"]}, {"conceptId": "C141937", "definition": "Deployment Risk & Resilience Inventory-2 - During deployment: I saw the bodies of dead civilians.", "preferredTerm": "DRRI-2 - E: Saw Bodies of Dead Civilians", "submissionValue": "DRRI1E10", "synonyms": ["DRRI1-E: Saw Bodies of Dead Civilians"]}, {"conceptId": "C141938", "definition": "Deployment Risk & Resilience Inventory-2 - During deployment: I interacted with detainees or prisoners of war.", "preferredTerm": "DRRI-2 - E: Interacted With Detainees", "submissionValue": "DRRI1E11", "synonyms": ["DRRI1-E: Interacted With Detainees"]}, {"conceptId": "C141939", "definition": "Deployment Risk & Resilience Inventory-2 - During deployment: I was exposed to the sight, sound, or smell of dead or dying animals.", "preferredTerm": "DRRI-2 - E: Sight/Sound/Smell Dead Animals", "submissionValue": "DRRI1E12", "synonyms": ["DRRI1-E: Sight/Sound/Smell Dead Animals"]}, {"conceptId": "C141940", "definition": "Deployment Risk & Resilience Inventory-2 - During deployment: I was involved in handling human remains.", "preferredTerm": "DRRI-2 - E: Involved Handling Human Remains", "submissionValue": "DRRI1E13", "synonyms": ["DRRI1-E: Involved Handling Human Remains"]}, {"conceptId": "C141941", "definition": "Deployment Risk & Resilience Inventory-2 - Either in preparation for or during my deployment: I took preventative pills (for example, to protect against nerve gas).", "preferredTerm": "DRRI-2 - F: Took Preventative Pills", "submissionValue": "DRRI1F01", "synonyms": ["DRRI1-F: Took Preventative Pills"]}, {"conceptId": "C141942", "definition": "Deployment Risk & Resilience Inventory-2 - Either in preparation for or during my deployment: I received preventative vaccinations by injection (for example, to prevent anthrax or botulism).", "preferredTerm": "DRRI-2 - F: Received Vaccinations", "submissionValue": "DRRI1F02", "synonyms": ["DRRI1-F: Received Vaccinations"]}, {"conceptId": "C141943", "definition": "Deployment Risk & Resilience Inventory-2 - Either in preparation for or during my deployment: I was exposed to nerve gas agents (for example, sarin).", "preferredTerm": "DRRI-2 - F: Exposed to Nerve Gas Agents", "submissionValue": "DRRI1F03", "synonyms": ["DRRI1-F: Exposed to Nerve Gas Agents"]}, {"conceptId": "C141944", "definition": "Deployment Risk & Resilience Inventory-2 - Either in preparation for or during my deployment: I was exposed to mustard gas or other blistering agents.", "preferredTerm": "DRRI-2 - F: Exposed to Mustard Gas", "submissionValue": "DRRI1F04", "synonyms": ["DRRI1-F: Exposed to Mustard Gas"]}, {"conceptId": "C141945", "definition": "Deployment Risk & Resilience Inventory-2 - Either in preparation for or during my deployment: I was exposed to government-issued DEET-containing insect repellents.", "preferredTerm": "DRRI-2 - F: Exposed Government-issued DEET", "submissionValue": "DRRI1F05", "synonyms": ["DRRI1-F: Exposed Government-issued DEET"]}, {"conceptId": "C141946", "definition": "Deployment Risk & Resilience Inventory-2 - Either in preparation for or during my deployment: I was exposed to other pesticides (for example, in flea collars, uniforms, or the environment).", "preferredTerm": "DRRI-2 - F: Exposed to Other Pesticides", "submissionValue": "DRRI1F06", "synonyms": ["DRRI1-F: Exposed to Other Pesticides"]}, {"conceptId": "C141947", "definition": "Deployment Risk & Resilience Inventory-2 - Either in preparation for or during my deployment: I was exposed to smoke or other air pollution.", "preferredTerm": "DRRI-2 - F: Exposed to Smoke/Air Pollution", "submissionValue": "DRRI1F07", "synonyms": ["DRRI1-F: Exposed to Smoke/Air Pollution"]}, {"conceptId": "C141948", "definition": "Deployment Risk & Resilience Inventory-2 - Either in preparation for or during my deployment: I was exposed to diesel or other petrochemical fuel on my skin.", "preferredTerm": "DRRI-2 - F: Exposed to Diesel/Fuel on Skin", "submissionValue": "DRRI1F08", "synonyms": ["DRRI1-F: Exposed to Diesel/Fuel on Skin"]}, {"conceptId": "C141949", "definition": "Deployment Risk & Resilience Inventory-2 - Either in preparation for or during my deployment: I was exposed to fumes or exhaust from heaters or generators, including heaters in tents.", "preferredTerm": "DRRI-2 - F: Exposed to Fumes From Heaters", "submissionValue": "DRRI1F09", "synonyms": ["DRRI1-F: Exposed to Fumes From Heaters"]}, {"conceptId": "C141950", "definition": "Deployment Risk & Resilience Inventory-2 - Either in preparation for or during my deployment: I was exposed to depleted uranium in munitions.", "preferredTerm": "DRRI-2 - F: Exposed to Depleted Uranium", "submissionValue": "DRRI1F10", "synonyms": ["DRRI1-F: Exposed to Depleted Uranium"]}, {"conceptId": "C141951", "definition": "Deployment Risk & Resilience Inventory-2 - Either in preparation for or during my deployment: I was exposed to burning trash or burning feces.", "preferredTerm": "DRRI-2 - F: Exposed to Burning Trash/Feces", "submissionValue": "DRRI1F11", "synonyms": ["DRRI1-F: Exposed to Burning Trash/Feces"]}, {"conceptId": "C141952", "definition": "Deployment Risk & Resilience Inventory-2 - Either in preparation for or during my deployment: I was exposed to chlorine gas.", "preferredTerm": "DRRI-2 - F: Exposed to Chlorine Gas", "submissionValue": "DRRI1F12", "synonyms": ["DRRI1-F: Exposed to Chlorine Gas"]}, {"conceptId": "C141953", "definition": "Deployment Risk & Resilience Inventory-2 - Either in preparation for or during my deployment: I was exposed to nuclear, biological, or chemical weapons.", "preferredTerm": "DRRI-2 - F: Exposed to Nuclear Weapons", "submissionValue": "DRRI1F13", "synonyms": ["DRRI1-F: Exposed to Nuclear Weapons"]}, {"conceptId": "C141954", "definition": "Deployment Risk & Resilience Inventory-2 - During deployment: I was concerned about getting an infectious disease.", "preferredTerm": "DRRI-2 - G: Concerned Infectious Disease", "submissionValue": "DRRI1G01", "synonyms": ["DRRI1-G: Concerned Infectious Disease"]}, {"conceptId": "C141955", "definition": "Deployment Risk & Resilience Inventory-2 - During deployment: I was concerned that my health might suffer due to exposure to nuclear, biological, or chemical (NBC) agents.", "preferredTerm": "DRRI-2 - G: Health Might Suffer NBC Agents", "submissionValue": "DRRI1G02", "synonyms": ["DRRI1-G: Health Might Suffer NBC Agents"]}, {"conceptId": "C141956", "definition": "Deployment Risk & Resilience Inventory-2 - During deployment: I felt I was in great danger of being wounded (for example, losing a limb).", "preferredTerm": "DRRI-2 - G: Felt in Danger of Being Wounded", "submissionValue": "DRRI1G03", "synonyms": ["DRRI1-G: Felt in Danger of Being Wounded"]}, {"conceptId": "C141957", "definition": "Deployment Risk & Resilience Inventory-2 - During deployment: I was concerned that the medicine I was given to protect me from illness would make me sick.", "preferredTerm": "DRRI-2 - G: Concerned Medicine Make Me Sick", "submissionValue": "DRRI1G04", "synonyms": ["DRRI1-G: Concerned Medicine Make Me Sick"]}, {"conceptId": "C141958", "definition": "Deployment Risk & Resilience Inventory-2 - During deployment: I was concerned that I would encounter an explosive device (for example, a roadside bomb, mine, or booby trap).", "preferredTerm": "DRRI-2 - G: Concerned Encounter Explosive", "submissionValue": "DRRI1G05", "synonyms": ["DRRI1-G: Concerned Encounter Explosive"]}, {"conceptId": "C141959", "definition": "Deployment Risk & Resilience Inventory-2 - During deployment: I feared that I would become sick from pesticides (for example, bug spray) or other routinely used chemicals.", "preferredTerm": "DRRI-2 - G: Feared Sick From Pesticides", "submissionValue": "DRRI1G06", "synonyms": ["DRRI1-G: Feared Sick From Pesticides"]}, {"conceptId": "C141960", "definition": "Deployment Risk & Resilience Inventory-2 - During deployment: I was concerned that a rocket or mortar would hit our living quarters.", "preferredTerm": "DRRI-2 - G: Concern Rocket/Mortar Would Hit", "submissionValue": "DRRI1G07", "synonyms": ["DRRI1-G: Concern Rocket/Mortar Would Hit"]}, {"conceptId": "C141961", "definition": "Deployment Risk & Resilience Inventory-2 - During deployment: I was concerned that I might be exposed to depleted uranium in munitions.", "preferredTerm": "DRRI-2 - G: Concerned Depleted Uranium", "submissionValue": "DRRI1G08", "synonyms": ["DRRI1-G: Concerned Depleted Uranium"]}, {"conceptId": "C141962", "definition": "Deployment Risk & Resilience Inventory-2 - During deployment: I thought I would never survive.", "preferredTerm": "DRRI-2 - G: Thought I Would Never Survive", "submissionValue": "DRRI1G09", "synonyms": ["DRRI1-G: Thought I Would Never Survive"]}, {"conceptId": "C141963", "definition": "Deployment Risk & Resilience Inventory-2 - During deployment: I was concerned that I might be taken hostage.", "preferredTerm": "DRRI-2 - G: Concerned Taken Hostage", "submissionValue": "DRRI1G10", "synonyms": ["DRRI1-G: Concerned Taken Hostage"]}, {"conceptId": "C141964", "definition": "Deployment Risk & Resilience Inventory-2 - During deployment: I was concerned that the locals who were supposed to be helping us were actually working against us.", "preferredTerm": "DRRI-2 - G: Concerned Locals Against Us", "submissionValue": "DRRI1G11", "synonyms": ["DRRI1-G: Concerned Locals Against Us"]}, {"conceptId": "C141965", "definition": "Deployment Risk & Resilience Inventory-2 - During deployment: I was concerned about being trapped in the crossfire of rival factions.", "preferredTerm": "DRRI-2 - G: Concerned Trapped in Crossfire", "submissionValue": "DRRI1G12", "synonyms": ["DRRI1-G: Concerned Trapped in Crossfire"]}, {"conceptId": "C141966", "definition": "Deployment Risk & Resilience Inventory-2 - In preparation for deployment: I had all the supplies and equipment needed to get my job done.", "preferredTerm": "DRRI-2 - H: Had All Supplies Needed", "submissionValue": "DRRI1H01", "synonyms": ["DRRI1-H: Had All Supplies Needed"]}, {"conceptId": "C141967", "definition": "Deployment Risk & Resilience Inventory-2 - In preparation for deployment: the training I received made me feel confident in my ability to use my equipment.", "preferredTerm": "DRRI-2 - H: Confident Ability Use Equipment", "submissionValue": "DRRI1H02", "synonyms": ["DRRI1-H: Confident Ability Use Equipment"]}, {"conceptId": "C141968", "definition": "Deployment Risk & Resilience Inventory-2 - In preparation for deployment: the training I received prepared me to deal with the region's climate.", "preferredTerm": "DRRI-2 - H: Prepared to Deal With Climate", "submissionValue": "DRRI1H03", "synonyms": ["DRRI1-H: Prepared to Deal With Climate"]}, {"conceptId": "C141969", "definition": "Deployment Risk & Resilience Inventory-2 - In preparation for deployment: I was accurately informed about the role my unit was expected to play in the deployment.", "preferredTerm": "DRRI-2 - H: Accurately Informed About Role", "submissionValue": "DRRI1H04", "synonyms": ["DRRI1-H: Accurately Informed About Role"]}, {"conceptId": "C141970", "definition": "Deployment Risk & Resilience Inventory-2 - In preparation for deployment: I had enough gear to protect myself in case of an attack.", "preferredTerm": "DRRI-2 - H: Had Enough Gear in Case Attack", "submissionValue": "DRRI1H05", "synonyms": ["DRRI1-H: Had Enough Gear in Case Attack"]}, {"conceptId": "C141971", "definition": "Deployment Risk & Resilience Inventory-2 - In preparation for deployment: I received appropriate training for the nature of the deployment I experienced.", "preferredTerm": "DRRI-2 - H: Training for Deployment", "submissionValue": "DRRI1H06", "synonyms": ["DRRI1-H: Training for Deployment"]}, {"conceptId": "C141972", "definition": "Deployment Risk & Resilience Inventory-2 - In preparation for deployment: my military duties and assignments were what I expected.", "preferredTerm": "DRRI-2 - H: Military Duties What I Expected", "submissionValue": "DRRI1H07", "synonyms": ["DRRI1-H: Military Duties What I Expected"]}, {"conceptId": "C141973", "definition": "Deployment Risk & Resilience Inventory-2 - In preparation for deployment: my unit was well-prepared to operate as a team during deployment.", "preferredTerm": "DRRI-2 - H: Prepared to Operate as Team", "submissionValue": "DRRI1H08", "synonyms": ["DRRI1-H: Prepared to Operate as Team"]}, {"conceptId": "C141974", "definition": "Deployment Risk & Resilience Inventory-2 - In preparation for deployment: the training I received made me feel confident in my ability to perform tasks assigned to me during deployment.", "preferredTerm": "DRRI-2 - H: Confident to Perform Tasks", "submissionValue": "DRRI1H09", "synonyms": ["DRRI1-H: Confident to Perform Tasks"]}, {"conceptId": "C141975", "definition": "Deployment Risk & Resilience Inventory-2 - In preparation for deployment: the training I received taught me everything I needed to know for deployment.", "preferredTerm": "DRRI-2 - H: Taught Me Everything I Needed", "submissionValue": "DRRI1H10", "synonyms": ["DRRI1-H: Taught Me Everything I Needed"]}, {"conceptId": "C141976", "definition": "Deployment Risk & Resilience Inventory-2 - During deployment: family members and/or friends at home were sincerely interested in hearing what was going on with me.", "preferredTerm": "DRRI-2 - I: Family Sincerely Interested", "submissionValue": "DRRI1I01", "synonyms": ["DRRI1-I: Family Sincerely Interested"]}, {"conceptId": "C141977", "definition": "Deployment Risk & Resilience Inventory-2 - During deployment: I had family members or friends at home I could talk to when I had a problem.", "preferredTerm": "DRRI-2 - I: Had Family I Could Talk To", "submissionValue": "DRRI1I02", "synonyms": ["DRRI1-I: Had Family I Could Talk To"]}, {"conceptId": "C141978", "definition": "Deployment Risk & Resilience Inventory-2 - During deployment: I could count on my family members or friends at home for good advice.", "preferredTerm": "DRRI-2 - I: Could Count on Family Advice", "submissionValue": "DRRI1I03", "synonyms": ["DRRI1-I: Could Count on Family Advice"]}, {"conceptId": "C141979", "definition": "Deployment Risk & Resilience Inventory-2 - During deployment: relatives or friends at home could be counted on to look out for the well-being of my family or other dependents (including pets).", "preferredTerm": "DRRI-2 - I: Relatives Look Out for Family", "submissionValue": "DRRI1I04", "synonyms": ["DRRI1-I: Relatives Look Out for Family"]}, {"conceptId": "C141980", "definition": "Deployment Risk & Resilience Inventory-2 - During deployment: relatives or friends at home could be counted on to take care of my finances, property, or belongings if needed.", "preferredTerm": "DRRI-2 - I: Relatives Take Care of Finances", "submissionValue": "DRRI1I05", "synonyms": ["DRRI1-I: Relatives Take Care of Finances"]}, {"conceptId": "C141981", "definition": "Deployment Risk & Resilience Inventory-2 - During deployment: I was happy with the amount of communication I received from people at home.", "preferredTerm": "DRRI-2 - I: Happy Communication From Home", "submissionValue": "DRRI1I06", "synonyms": ["DRRI1-I: Happy Communication From Home"]}, {"conceptId": "C141982", "definition": "Deployment Risk & Resilience Inventory-2 - During deployment: I was happy with the amount of support I received from people at home.", "preferredTerm": "DRRI-2 - I: Happy With Support From Home", "submissionValue": "DRRI1I07", "synonyms": ["DRRI1-I: Happy With Support From Home"]}, {"conceptId": "C141983", "definition": "Deployment Risk & Resilience Inventory-2 - During deployment: people at home did things to show they cared about me.", "preferredTerm": "DRRI-2 - I: People at Home Show They Cared", "submissionValue": "DRRI1I08", "synonyms": ["DRRI1-I: People at Home Show They Cared"]}, {"conceptId": "C141984", "definition": "Deployment Risk & Resilience Inventory-2 - During deployment: my unit was like family to me.", "preferredTerm": "DRRI-2 - J: My Unit Was Like Family to Me", "submissionValue": "DRRI1J01", "synonyms": ["DRRI1-J: My Unit Was Like Family to Me"]}, {"conceptId": "C141985", "definition": "Deployment Risk & Resilience Inventory-2 - During deployment: people in my unit were trustworthy.", "preferredTerm": "DRRI-2 - J: People in Unit Were Trustworthy", "submissionValue": "DRRI1J02", "synonyms": ["DRRI1-J: People in Unit Were Trustworthy"]}, {"conceptId": "C141986", "definition": "Deployment Risk & Resilience Inventory-2 - During deployment: my fellow unit members appreciated my efforts.", "preferredTerm": "DRRI-2 - J: Fellow Unit Appreciated Efforts", "submissionValue": "DRRI1J03", "synonyms": ["DRRI1-J: Fellow Unit Appreciated Efforts"]}, {"conceptId": "C141987", "definition": "Deployment Risk & Resilience Inventory-2 - During deployment: I felt valued by my fellow unit members.", "preferredTerm": "DRRI-2 - J: Felt Valued Fellow Unit Members", "submissionValue": "DRRI1J04", "synonyms": ["DRRI1-J: Felt Valued Fellow Unit Members"]}, {"conceptId": "C141988", "definition": "Deployment Risk & Resilience Inventory-2 - During deployment: members of my unit were interested in my well-being.", "preferredTerm": "DRRI-2 - J: Unit Interested My Well-being", "submissionValue": "DRRI1J05", "synonyms": ["DRRI1-J: Unit Interested My Well-being"]}, {"conceptId": "C141989", "definition": "Deployment Risk & Resilience Inventory-2 - During deployment: my fellow unit members were interested in what I thought and how I felt about things.", "preferredTerm": "DRRI-2 - J: Unit Interested What I Thought", "submissionValue": "DRRI1J06", "synonyms": ["DRRI1-J: Unit Interested What I Thought"]}, {"conceptId": "C141990", "definition": "Deployment Risk & Resilience Inventory-2 - During deployment: my unit leader(s) were interested in what I thought and how I felt about things.", "preferredTerm": "DRRI-2 - J: Leader Interested What Thought", "submissionValue": "DRRI1J07", "synonyms": ["DRRI1-J: Leader Interested What Thought"]}, {"conceptId": "C141991", "definition": "Deployment Risk & Resilience Inventory-2 - During deployment: I felt like my efforts really counted to the leaders in my unit.", "preferredTerm": "DRRI-2 - J: Felt Like My Efforts Counted", "submissionValue": "DRRI1J08", "synonyms": ["DRRI1-J: Felt Like My Efforts Counted"]}, {"conceptId": "C141992", "definition": "Deployment Risk & Resilience Inventory-2 - During deployment: my service was appreciated by the leaders in my unit.", "preferredTerm": "DRRI-2 - J: Service Appreciated by Leaders", "submissionValue": "DRRI1J09", "synonyms": ["DRRI1-J: Service Appreciated by Leaders"]}, {"conceptId": "C141993", "definition": "Deployment Risk & Resilience Inventory-2 - During deployment: I could go to unit leaders for help if I had a problem or concern.", "preferredTerm": "DRRI-2 - J: Could Go to Leaders If Problem", "submissionValue": "DRRI1J10", "synonyms": ["DRRI1-J: Could Go to Leaders If Problem"]}, {"conceptId": "C141994", "definition": "Deployment Risk & Resilience Inventory-2 - During deployment: the leaders of my unit were interested in my personal welfare.", "preferredTerm": "DRRI-2 - J: Leaders Interested in Welfare", "submissionValue": "DRRI1J11", "synonyms": ["DRRI1-J: Leaders Interested in Welfare"]}, {"conceptId": "C141995", "definition": "Deployment Risk & Resilience Inventory-2 - During deployment: I felt valued by the leaders of my unit.", "preferredTerm": "DRRI-2 - J: Felt Valued by Leaders of Unit", "submissionValue": "DRRI1J12", "synonyms": ["DRRI1-J: Felt Valued by Leaders of Unit"]}, {"conceptId": "C141996", "definition": "Deployment Risk & Resilience Inventory-2 - During deployment, the people I worked with: treated me in an overly critical way.", "preferredTerm": "DRRI-2 - K: Treated in Overly Critical Way", "submissionValue": "DRRI1K01", "synonyms": ["DRRI1-K: Treated in Overly Critical Way"]}, {"conceptId": "C141997", "definition": "Deployment Risk & Resilience Inventory-2 - During deployment, the people I worked with: behaved in way that was uncooperative when working with me.", "preferredTerm": "DRRI-2 - K: Uncooperative Working With Me", "submissionValue": "DRRI1K02", "synonyms": ["DRRI1-K: Uncooperative Working With Me"]}, {"conceptId": "C141998", "definition": "Deployment Risk & Resilience Inventory-2 - During deployment, the people I worked with: treated me as if I had to work harder than others to prove myself.", "preferredTerm": "DRRI-2 - K: Had to Work Harder Prove Myself", "submissionValue": "DRRI1K03", "synonyms": ["DRRI1-K: Had to Work Harder Prove Myself"]}, {"conceptId": "C141999", "definition": "Deployment Risk & Resilience Inventory-2 - During deployment, the people I worked with: questioned my abilities or commitment to perform my job effectively.", "preferredTerm": "DRRI-2 - K: Questioned My Abilities Perform", "submissionValue": "DRRI1K04", "synonyms": ["DRRI1-K: Questioned My Abilities Perform"]}, {"conceptId": "C142000", "definition": "Deployment Risk & Resilience Inventory-2 - During deployment, the people I worked with: acted as though my mistakes were worse than others'.", "preferredTerm": "DRRI-2 - K: My Mistakes Worse Than Others", "submissionValue": "DRRI1K05", "synonyms": ["DRRI1-K: My Mistakes Worse Than Others"]}, {"conceptId": "C142001", "definition": "Deployment Risk & Resilience Inventory-2 - During deployment, the people I worked with: tried to make my job more difficult to do.", "preferredTerm": "DRRI-2 - K: Make My Job More Difficult", "submissionValue": "DRRI1K06", "synonyms": ["DRRI1-K: Make My Job More Difficult"]}, {"conceptId": "C142002", "definition": "Deployment Risk & Resilience Inventory-2 - During deployment, the people I worked with: \"put me down\" or treated me in a condescending way.", "preferredTerm": "DRRI-2 - K: Put Me Down", "submissionValue": "DRRI1K07", "synonyms": ["DRRI1-K: Put Me Down"]}, {"conceptId": "C142003", "definition": "Deployment Risk & Resilience Inventory-2 - During deployment, the people I worked with: threatened my physical safety.", "preferredTerm": "DRRI-2 - K: Threatened My Physical Safety", "submissionValue": "DRRI1K08", "synonyms": ["DRRI1-K: Threatened My Physical Safety"]}, {"conceptId": "C142004", "definition": "Deployment Risk & Resilience Inventory-2 - During deployment, the people I worked with: made crude and offensive sexual remarks directed at me, either publicly or privately.", "preferredTerm": "DRRI-2 - K: Made Crude Sexual Remarks at Me", "submissionValue": "DRRI1K09", "synonyms": ["DRRI1-K: Made Crude Sexual Remarks at Me"]}, {"conceptId": "C142005", "definition": "Deployment Risk & Resilience Inventory-2 - During deployment, the people I worked with: spread negative rumors about my sexual activities.", "preferredTerm": "DRRI-2 - K: Spread Rumors Sexual Activities", "submissionValue": "DRRI1K10", "synonyms": ["DRRI1-K: Spread Rumors Sexual Activities"]}, {"conceptId": "C142006", "definition": "Deployment Risk & Resilience Inventory-2 - During deployment, the people I worked with: tried to talk me into participating in sexual acts when I didn't want to.", "preferredTerm": "DRRI-2 - K: Tried to Talk into Sexual Acts", "submissionValue": "DRRI1K11", "synonyms": ["DRRI1-K: Tried to Talk into Sexual Acts"]}, {"conceptId": "C142007", "definition": "Deployment Risk & Resilience Inventory-2 - During deployment, the people I worked with: used a position of authority to pressure me into unwanted sexual activity.", "preferredTerm": "DRRI-2 - K: Authority Pressure Unwanted Sex", "submissionValue": "DRRI1K12", "synonyms": ["DRRI1-K: Authority Pressure Unwanted Sex"]}, {"conceptId": "C142008", "definition": "Deployment Risk & Resilience Inventory-2 - During deployment, the people I worked with: offered me a specific reward or special treatment to take part in sexual behavior.", "preferredTerm": "DRRI-2 - K: Offered Reward Take Part in Sex", "submissionValue": "DRRI1K13", "synonyms": ["DRRI1-K: Offered Reward Take Part in Sex"]}, {"conceptId": "C142009", "definition": "Deployment Risk & Resilience Inventory-2 - During deployment, the people I worked with: threatened me with some sort of retaliation if I was not sexually cooperative (for example, the threat of negative review or physical violence).", "preferredTerm": "DRRI-2 - K: Threatened Me If Not Sex", "submissionValue": "DRRI1K14", "synonyms": ["DRRI1-K: Threatened Me If Not Sex"]}, {"conceptId": "C142010", "definition": "Deployment Risk & Resilience Inventory-2 - During deployment, the people I worked with: touched me in a sexual way against my will.", "preferredTerm": "DRRI-2 - K: Touched Sexual Way Against Will", "submissionValue": "DRRI1K15", "synonyms": ["DRRI1-K: Touched Sexual Way Against Will"]}, {"conceptId": "C142011", "definition": "Deployment Risk & Resilience Inventory-2 - During deployment, the people I worked with: physically forced me to have sex.", "preferredTerm": "DRRI-2 - K: Physically Forced to Have Sex", "submissionValue": "DRRI1K16", "synonyms": ["DRRI1-K: Physically Forced to Have Sex"]}, {"conceptId": "C142012", "definition": "Deployment Risk & Resilience Inventory-2 - During deployment, I was concerned about: the effect of the deployment on my relationship with my spouse or significant other.", "preferredTerm": "DRRI-2 - L: Effect Deployment Relationship", "submissionValue": "DRRI1L01", "synonyms": ["DRRI1-L: Effect Deployment Relationship"]}, {"conceptId": "C142013", "definition": "Deployment Risk & Resilience Inventory-2 - During deployment, I was concerned about: missing out on my children's growth and development.", "preferredTerm": "DRRI-2 - L: Missing Out on Children Growth", "submissionValue": "DRRI1L02", "synonyms": ["DRRI1-L: Missing Out on Children Growth"]}, {"conceptId": "C142014", "definition": "Deployment Risk & Resilience Inventory-2 - During deployment, I was concerned about: missing important family events at home such as birthdays, weddings, funerals, graduations, etc.", "preferredTerm": "DRRI-2 - L: Missing Family Events at Home", "submissionValue": "DRRI1L03", "synonyms": ["DRRI1-L: Missing Family Events at Home"]}, {"conceptId": "C142015", "definition": "Deployment Risk & Resilience Inventory-2 - During deployment, I was concerned about: the safety and well-being of my spouse or significant other.", "preferredTerm": "DRRI-2 - L: Safety and Well-being of Spouse", "submissionValue": "DRRI1L04", "synonyms": ["DRRI1-L: Safety and Well-being of Spouse"]}, {"conceptId": "C142016", "definition": "Deployment Risk & Resilience Inventory-2 - During deployment, I was concerned about: the safety and well-being of my child(ren).", "preferredTerm": "DRRI-2 - L: Safety and Well-being of Child", "submissionValue": "DRRI1L05", "synonyms": ["DRRI1-L: Safety and Well-being of Child"]}, {"conceptId": "C142017", "definition": "Deployment Risk & Resilience Inventory-2 - During deployment, I was concerned about: being unable to help my family if there was some kind of crisis or emergency.", "preferredTerm": "DRRI-2 - L: Unable to Help Family If Crisis", "submissionValue": "DRRI1L06", "synonyms": ["DRRI1-L: Unable to Help Family If Crisis"]}, {"conceptId": "C142018", "definition": "Deployment Risk & Resilience Inventory-2 - During deployment, I was concerned about: my inability to directly manage or control family affairs.", "preferredTerm": "DRRI-2 - L: Inability Manage Family Affairs", "submissionValue": "DRRI1L07", "synonyms": ["DRRI1-L: Inability Manage Family Affairs"]}, {"conceptId": "C142019", "definition": "Deployment Risk & Resilience Inventory-2 - During deployment, I was concerned about: damaging my career because of the deployment.", "preferredTerm": "DRRI-2 - L: Damaging Career Because Deploy", "submissionValue": "DRRI1L08", "synonyms": ["DRRI1-L: Damaging Career Because Deploy"]}, {"conceptId": "C142020", "definition": "Deployment Risk & Resilience Inventory-2 - During deployment, I was concerned about: the care that my child(ren) or other dependents were receiving.", "preferredTerm": "DRRI-2 - L: Care Child/Dependents Receiving", "submissionValue": "DRRI1L09", "synonyms": ["DRRI1-L: Care Child/Dependents Receiving"]}, {"conceptId": "C142021", "definition": "Deployment Risk & Resilience Inventory-2 - During deployment, I was concerned about: being cheated on by my spouse or significant other.", "preferredTerm": "DRRI-2 - L: Being Cheated on by My Spouse", "submissionValue": "DRRI1L10", "synonyms": ["DRRI1-L: Being Cheated on by My Spouse"]}, {"conceptId": "C142022", "definition": "Deployment Risk & Resilience Inventory-2 - During deployment, I was concerned about: my family's ability to cope with the stress of the deployment.", "preferredTerm": "DRRI-2 - L: Family Ability Cope With Stress", "submissionValue": "DRRI1L11", "synonyms": ["DRRI1-L: Family Ability Cope With Stress"]}, {"conceptId": "C142023", "definition": "Deployment Risk & Resilience Inventory-2 - During deployment, I was concerned about: my spouse or significant other's ability to manage the household (for example, chores, bills, home repairs, etc.).", "preferredTerm": "DRRI-2 - L: Spouse Ability Manage Household", "submissionValue": "DRRI1L12", "synonyms": ["DRRI1-L: Spouse Ability Manage Household"]}, {"conceptId": "C142024", "definition": "Deployment Risk & Resilience Inventory-2 - During deployment, I was concerned about: losing my civilian job because of the deployment.", "preferredTerm": "DRRI-2 - L: Losing My Civilian Job", "submissionValue": "DRRI1L13", "synonyms": ["DRRI1-L: Losing My Civilian Job"]}, {"conceptId": "C142025", "definition": "Deployment Risk & Resilience Inventory-2 - During deployment, I was concerned about: the effect of the deployment on my relationship with my child(ren).", "preferredTerm": "DRRI-2 - L: Effect Relationship My Children", "submissionValue": "DRRI1L14", "synonyms": ["DRRI1-L: Effect Relationship My Children"]}, {"conceptId": "C142026", "definition": "Deployment Risk & Resilience Inventory-2 - During deployment, I was concerned about: my family's financial situation.", "preferredTerm": "DRRI-2 - L: My Family Financial Situation", "submissionValue": "DRRI1L15", "synonyms": ["DRRI1-L: My Family Financial Situation"]}, {"conceptId": "C142027", "definition": "Deployment Risk & Resilience Inventory-2 - During deployment: I had problems getting in touch with a family member or other loved one.", "preferredTerm": "DRRI-2 - M: Problems Get in Touch Family", "submissionValue": "DRRI1M01", "synonyms": ["DRRI1-M: Problems Get in Touch Family"]}, {"conceptId": "C142028", "definition": "Deployment Risk & Resilience Inventory-2 - During deployment: someone close to me experienced a serious illness, injury, or mental health problem (for example, cancer, alcohol/drug problem).", "preferredTerm": "DRRI-2 - M: Someone Close Serious Illness", "submissionValue": "DRRI1M02", "synonyms": ["DRRI1-M: Someone Close Serious Illness"]}, {"conceptId": "C142029", "definition": "Deployment Risk & Resilience Inventory-2 - During deployment: a family member or other loved one passed away.", "preferredTerm": "DRRI-2 - M: Family Member Passed Away", "submissionValue": "DRRI1M03", "synonyms": ["DRRI1-M: Family Member Passed Away"]}, {"conceptId": "C142030", "definition": "Deployment Risk & Resilience Inventory-2 - During deployment: my family had money problems.", "preferredTerm": "DRRI-2 - M: My Family Had Money Problems", "submissionValue": "DRRI1M04", "synonyms": ["DRRI1-M: My Family Had Money Problems"]}, {"conceptId": "C142031", "definition": "Deployment Risk & Resilience Inventory-2 - During deployment: a spouse or significant other cheated on me.", "preferredTerm": "DRRI-2 - M: Spouse Cheated on Me", "submissionValue": "DRRI1M05", "synonyms": ["DRRI1-M: Spouse Cheated on Me"]}, {"conceptId": "C142032", "definition": "Deployment Risk & Resilience Inventory-2 - During deployment: a spouse or significant other suspected that I had cheated on him/her.", "preferredTerm": "DRRI-2 - M: Spouse Suspected I Cheated", "submissionValue": "DRRI1M06", "synonyms": ["DRRI1-M: Spouse Suspected I Cheated"]}, {"conceptId": "C142033", "definition": "Deployment Risk & Resilience Inventory-2 - During deployment: my relationship with a spouse or significant other ended.", "preferredTerm": "DRRI-2 - M: Relationship With Spouse Ended", "submissionValue": "DRRI1M07", "synonyms": ["DRRI1-M: Relationship With Spouse Ended"]}, {"conceptId": "C142034", "definition": "Deployment Risk & Resilience Inventory-2 - During deployment: I had a major conflict with a family member or other loved one.", "preferredTerm": "DRRI-2 - M: Had Major Conflict With Family", "submissionValue": "DRRI1M08", "synonyms": ["DRRI1-M: Had Major Conflict With Family"]}, {"conceptId": "C142035", "definition": "Deployment Risk & Resilience Inventory-2 - During deployment: a family member or other loved one had serious difficulty adjusting to my absence.", "preferredTerm": "DRRI-2 - M: Family Had Difficulty Adjusting", "submissionValue": "DRRI1M09", "synonyms": ["DRRI1-M: Family Had Difficulty Adjusting"]}, {"conceptId": "C142036", "definition": "Deployment Risk & Resilience Inventory-2 - During deployment: my home was robbed and/or my belongings were stolen.", "preferredTerm": "DRRI-2 - M: My Home Was Robbed", "submissionValue": "DRRI1M10", "synonyms": ["DRRI1-M: My Home Was Robbed"]}, {"conceptId": "C142037", "definition": "Deployment Risk & Resilience Inventory-2 - During deployment: a family member or other person I trusted wasted or mismanaged my money.", "preferredTerm": "DRRI-2 - M: Family Member Wasted Money", "submissionValue": "DRRI1M11", "synonyms": ["DRRI1-M: Family Member Wasted Money"]}, {"conceptId": "C142038", "definition": "Deployment Risk & Resilience Inventory-2 - During deployment: I learned that a loved one was doing things I disapproved of.", "preferredTerm": "DRRI-2 - M: Loved One Things I Disapproved", "submissionValue": "DRRI1M12", "synonyms": ["DRRI1-M: Loved One Things I Disapproved"]}, {"conceptId": "C142039", "definition": "Deployment Risk & Resilience Inventory-2 - During deployment: a family member or other loved one participated in dangerous military duties.", "preferredTerm": "DRRI-2 - M: Fam Dangerous Military Duties", "submissionValue": "DRRI1M13", "synonyms": ["DRRI1-M: Fam Dangerous Military Duties"]}, {"conceptId": "C142040", "definition": "Deployment Risk & Resilience Inventory-2 - During deployment: a family member got into trouble at home, at school, or in the community.", "preferredTerm": "DRRI-2 - M: Family Got Into Trouble", "submissionValue": "DRRI1M14", "synonyms": ["DRRI1-M: Family Got Into Trouble"]}, {"conceptId": "C142041", "definition": "Deployment Risk & Resilience Inventory-2 - Since returning: I was robbed or had my home broken into.", "preferredTerm": "DRRI-2 - N: Robbed/Had My Home Broken Into", "submissionValue": "DRRI1N01", "synonyms": ["DRRI1-N: Robbed/Had My Home Broken Into"]}, {"conceptId": "C142042", "definition": "Deployment Risk & Resilience Inventory-2 - Since returning: I experienced unwanted sexual activity as a result of force, threat or harm, or manipulation.", "preferredTerm": "DRRI-2 - N: Unwanted Sexual Activity", "submissionValue": "DRRI1N02", "synonyms": ["DRRI1-N: Unwanted Sexual Activity"]}, {"conceptId": "C142043", "definition": "Deployment Risk & Resilience Inventory-2 - Since returning: I went through a divorce or have been left by a partner or significant other.", "preferredTerm": "DRRI-2 - N: Went Through Divorce/Was Left", "submissionValue": "DRRI1N03", "synonyms": ["DRRI1-N: Went Through Divorce/Was Left"]}, {"conceptId": "C142044", "definition": "Deployment Risk & Resilience Inventory-2 - Since returning: I had problems getting access to adequate healthcare.", "preferredTerm": "DRRI-2 - N: Problems Getting Healthcare", "submissionValue": "DRRI1N04", "synonyms": ["DRRI1-N: Problems Getting Healthcare"]}, {"conceptId": "C142045", "definition": "Deployment Risk & Resilience Inventory-2 - Since returning: I experienced a natural disaster (for example, a hurricane), a fire, or an accident in which I or someone close to me was hurt or had serious property damage.", "preferredTerm": "DRRI-2 - N: Experienced Natural Disaster", "submissionValue": "DRRI1N05", "synonyms": ["DRRI1-N: Experienced Natural Disaster"]}, {"conceptId": "C142046", "definition": "Deployment Risk & Resilience Inventory-2 - Since returning: someone close to me has experienced a serious illness, injury, or mental health problem (for example, cancer, alcohol/drug problem).", "preferredTerm": "DRRI-2 - N: Someone Close Serious Illness", "submissionValue": "DRRI1N06", "synonyms": ["DRRI1-N: Someone Close Serious Illness"]}, {"conceptId": "C142047", "definition": "Deployment Risk & Resilience Inventory-2 - Since returning: I have witnessed someone being seriously assaulted or killed.", "preferredTerm": "DRRI-2 - N: Witnessed Someone Assaulted", "submissionValue": "DRRI1N07", "synonyms": ["DRRI1-N: Witnessed Someone Assaulted"]}, {"conceptId": "C142048", "definition": "Deployment Risk & Resilience Inventory-2 - Since returning: I lost my job or had serious trouble finding a job.", "preferredTerm": "DRRI-2 - N: Lost My Job/Trouble Finding Job", "submissionValue": "DRRI1N08", "synonyms": ["DRRI1-N: Lost My Job/Trouble Finding Job"]}, {"conceptId": "C142049", "definition": "Deployment Risk & Resilience Inventory-2 - Since returning: I have been emotionally mistreated (for example, ignored or repeatedly told I was no good).", "preferredTerm": "DRRI-2 - N: Emotionally Mistreated", "submissionValue": "DRRI1N09", "synonyms": ["DRRI1-N: Emotionally Mistreated"]}, {"conceptId": "C142050", "definition": "Deployment Risk & Resilience Inventory-2 - Since returning: I have experienced serious financial problems.", "preferredTerm": "DRRI-2 - N: Serious Financial Problems", "submissionValue": "DRRI1N10", "synonyms": ["DRRI1-N: Serious Financial Problems"]}, {"conceptId": "C142051", "definition": "Deployment Risk & Resilience Inventory-2 - Since returning: I have experienced serious physical or mental health problems.", "preferredTerm": "DRRI-2 - N: Serious Physical Health Problem", "submissionValue": "DRRI1N11", "synonyms": ["DRRI1-N: Serious Physical Health Problem"]}, {"conceptId": "C142052", "definition": "Deployment Risk & Resilience Inventory-2 - Since returning: I have experienced stressful legal problems (for example, being sued, suing someone else, or being in a custody battle).", "preferredTerm": "DRRI-2 - N: Stressful Legal Problems", "submissionValue": "DRRI1N12", "synonyms": ["DRRI1-N: Stressful Legal Problems"]}, {"conceptId": "C142053", "definition": "Deployment Risk & Resilience Inventory-2 - Since returning: I have been seriously physically injured by another person (for example, hit or beaten up).", "preferredTerm": "DRRI-2 - N: Injured by Another Person", "submissionValue": "DRRI1N13", "synonyms": ["DRRI1-N: Injured by Another Person"]}, {"conceptId": "C142054", "definition": "Deployment Risk & Resilience Inventory-2 - Since returning: someone close to me has died.", "preferredTerm": "DRRI-2 - N: Someone Close to Me Has Died", "submissionValue": "DRRI1N14", "synonyms": ["DRRI1-N: Someone Close to Me Has Died"]}, {"conceptId": "C142055", "definition": "Deployment Risk & Resilience Inventory-2 - Since returning: the American people made me feel at home.", "preferredTerm": "DRRI-2 - O: People Made Me Feel at Home", "submissionValue": "DRRI1O01", "synonyms": ["DRRI1-O: People Made Me Feel at Home"]}, {"conceptId": "C142056", "definition": "Deployment Risk & Resilience Inventory-2 - Since returning: people made me feel proud to have served my country in the Armed Forces.", "preferredTerm": "DRRI-2 - O: People Made Me Feel Proud", "submissionValue": "DRRI1O02", "synonyms": ["DRRI1-O: People Made Me Feel Proud"]}, {"conceptId": "C142057", "definition": "Deployment Risk & Resilience Inventory-2 - Since returning: my family members and/or friends make me feel better when I am down.", "preferredTerm": "DRRI-2 - O: Family Make Me Better When Down", "submissionValue": "DRRI1O03", "synonyms": ["DRRI1-O: Family Make Me Better When Down"]}, {"conceptId": "C142058", "definition": "Deployment Risk & Resilience Inventory-2 - Since returning: I can go to family members or friends when I need good advice.", "preferredTerm": "DRRI-2 - O: Go to Family When Need Advice", "submissionValue": "DRRI1O04", "synonyms": ["DRRI1-O: Go to Family When Need Advice"]}, {"conceptId": "C142059", "definition": "Deployment Risk & Resilience Inventory-2 - Since returning: my family and friends understand what I have been through in the Armed Forces.", "preferredTerm": "DRRI-2 - O: Family/Friends Understand", "submissionValue": "DRRI1O05", "synonyms": ["DRRI1-O: Family/Friends Understand"]}, {"conceptId": "C142060", "definition": "Deployment Risk & Resilience Inventory-2 - Since returning: there are family and/or friends with whom I can talk about my deployment experiences.", "preferredTerm": "DRRI-2 - O: I Can Talk About My Deployment", "submissionValue": "DRRI1O06", "synonyms": ["DRRI1-O: I Can Talk About My Deployment"]}, {"conceptId": "C142061", "definition": "Deployment Risk & Resilience Inventory-2 - Since returning: my family members or friends would lend me money if I needed it.", "preferredTerm": "DRRI-2 - O: Family Would Lend Money", "submissionValue": "DRRI1O07", "synonyms": ["DRRI1-O: Family Would Lend Money"]}, {"conceptId": "C142062", "definition": "Deployment Risk & Resilience Inventory-2 - Since returning: my family members or friends would help me move my belongings if I needed help.", "preferredTerm": "DRRI-2 - O: Family Would Help Move", "submissionValue": "DRRI1O08", "synonyms": ["DRRI1-O: Family Would Help Move"]}, {"conceptId": "C142063", "definition": "Deployment Risk & Resilience Inventory-2 - Since returning: if I were unable to attend to daily chores, there is someone who would help me with these tasks.", "preferredTerm": "DRRI-2 - O: Someone Would Help With Tasks", "submissionValue": "DRRI1O09", "synonyms": ["DRRI1-O: Someone Would Help With Tasks"]}, {"conceptId": "C142064", "definition": "Deployment Risk & Resilience Inventory-2 - Since returning: when I am ill, family members or friends will help out until I am well.", "preferredTerm": "DRRI-2 - O: When Ill Family Will Help Out", "submissionValue": "DRRI1O10", "synonyms": ["DRRI1-O: When Ill Family Will Help Out"]}, {"conceptId": "C142065", "definition": "Deployment Risk & Resilience Inventory-2 - Since returning: my input is sought on important family decisions.", "preferredTerm": "DRRI-2 - P: Input Sought Family Decisions", "submissionValue": "DRRI1P01", "synonyms": ["DRRI1-P: Input Sought Family Decisions"]}, {"conceptId": "C142066", "definition": "Deployment Risk & Resilience Inventory-2 - Since returning: I feel like I fit in with my family.", "preferredTerm": "DRRI-2 - P: Feel Like I Fit in With Family", "submissionValue": "DRRI1P02", "synonyms": ["DRRI1-P: Feel Like I Fit in With Family"]}, {"conceptId": "C142067", "definition": "Deployment Risk & Resilience Inventory-2 - Since returning: family members know what I think and how I feel about things.", "preferredTerm": "DRRI-2 - P: Family Know What I Think/Feel", "submissionValue": "DRRI1P03", "synonyms": ["DRRI1-P: Family Know What I Think/Feel"]}, {"conceptId": "C142068", "definition": "Deployment Risk & Resilience Inventory-2 - Since returning: I feel like my contributions to my family are appreciated.", "preferredTerm": "DRRI-2 - P: Contribution Family Appreciated", "submissionValue": "DRRI1P04", "synonyms": ["DRRI1-P: Contribution Family Appreciated"]}, {"conceptId": "C142069", "definition": "Deployment Risk & Resilience Inventory-2 - Since returning: I share many common interests and activities with family members.", "preferredTerm": "DRRI-2 - P: Share Interests With Family", "submissionValue": "DRRI1P05", "synonyms": ["DRRI1-P: Share Interests With Family"]}, {"conceptId": "C142070", "definition": "Deployment Risk & Resilience Inventory-2 - Since returning: my opinions are valued by other family members.", "preferredTerm": "DRRI-2 - P: Opinions Valued by Family", "submissionValue": "DRRI1P06", "synonyms": ["DRRI1-P: Opinions Valued by Family"]}, {"conceptId": "C142071", "definition": "Deployment Risk & Resilience Inventory-2 - Since returning: I am affectionate with family members.", "preferredTerm": "DRRI-2 - P: I am Affectionate With Family", "submissionValue": "DRRI1P07", "synonyms": ["DRRI1-P: I am Affectionate With Family"]}, {"conceptId": "C142072", "definition": "Deployment Risk & Resilience Inventory-2 - Since returning: I play an important role in my family.", "preferredTerm": "DRRI-2 - P: Play Important Role in Family", "submissionValue": "DRRI1P08", "synonyms": ["DRRI1-P: Play Important Role in Family"]}, {"conceptId": "C142073", "definition": "Deployment Risk & Resilience Inventory-2 - Since returning: I spend as much of my free time with family members as possible.", "preferredTerm": "DRRI-2 - P: Spend My Free Time With Family", "submissionValue": "DRRI1P09", "synonyms": ["DRRI1-P: Spend My Free Time With Family"]}, {"conceptId": "C142074", "definition": "Deployment Risk & Resilience Inventory-2 - Since returning: family members tell me when they are having a problem.", "preferredTerm": "DRRI-2 - P: Family Tell Me When Problem", "submissionValue": "DRRI1P10", "synonyms": ["DRRI1-P: Family Tell Me When Problem"]}, {"conceptId": "C142075", "definition": "Deployment Risk & Resilience Inventory-2 - Since returning: I can be myself around family members.", "preferredTerm": "DRRI-2 - P: Can Be Myself Around Family", "submissionValue": "DRRI1P11", "synonyms": ["DRRI1-P: Can Be Myself Around Family"]}, {"conceptId": "C142076", "definition": "Deployment Risk & Resilience Inventory-2 - Since returning: I get along well with my family members.", "preferredTerm": "DRRI-2 - P: I Get Along Well With My Family", "submissionValue": "DRRI1P12", "synonyms": ["DRRI1-P: I Get Along Well With My Family"]}]}