{"_links": {"parentPackage": {"href": "/mdr/ct/packages/sdtmct-2022-09-30", "title": "SDTM Controlled Terminology Package 51 Effective 2022-09-30", "type": "Terminology"}, "priorVersion": {"href": "/mdr/ct/packages/sdtmct-2022-06-24/codelists/C147541", "title": "CDISC Questionnaire FACIT-Dyspnea 10 Item Short Form Test Name Terminology", "type": "Code List"}, "rootItem": {"href": "/mdr/root/ct/sdtmct/codelists/C147541", "title": "Version-agnostic anchor resource for codelist C147541", "type": "Root Value Domain"}, "self": {"href": "/mdr/ct/packages/sdtmct-2022-09-30/codelists/C147541", "title": "CDISC Questionnaire FACIT-Dyspnea 10 Item Short Form Test Name Terminology", "type": "Code List"}}, "conceptId": "C147541", "definition": "Functional Assessment of Chronic Illness Therapy-Dyspnea 10 Item Short Form test name.", "extensible": "false", "name": "Functional Assessment of Chronic Illness Therapy-Dyspnea 10 Item Short Form Questionnaire Test Name", "preferredTerm": "CDISC Questionnaire FACIT-Dyspnea 10 Item Short Form Test Name Terminology", "submissionValue": "FAC084TN", "synonyms": ["Functional Assessment of Chronic Illness Therapy-Dyspnea 10 Item Short Form Questionnaire Test Name"], "terms": [{"conceptId": "C147660", "definition": "Functional Assessment of Chronic Illness Therapy-Dyspnea 10 Item Short Form - Part I. Over the past 7 days, how short of breath did you get with each of these activities?: Carrying something weighing 10-20 lbs (about 4.5-9kg, like a large bag of groceries) from one room to another. Please indicate why you did not do this in the past 7 days.", "preferredTerm": "FACIT-Dyspnea 10 Item Short Form - Part I: Carry 10-20 Lbs Why Not", "submissionValue": "FAC084-Part I: Carry 10-20 Lbs Why Not", "synonyms": ["FAC084-Part I: Carry 10-20 Lbs Why Not"]}, {"conceptId": "C147659", "definition": "Functional Assessment of Chronic Illness Therapy-Dyspnea 10 Item Short Form - Part I. Over the past 7 days, how short of breath did you get with each of these activities?: Carrying something weighing 10-20 lbs (about 4.5-9kg, like a large bag of groceries) from one room to another.", "preferredTerm": "FACIT-Dyspnea 10 Item Short Form - Part I: Carry 10-20 Lbs", "submissionValue": "FAC084-Part I: Carry 10-20 Lbs", "synonyms": ["FAC084-Part I: Carry 10-20 Lbs"]}, {"conceptId": "C147644", "definition": "Functional Assessment of Chronic Illness Therapy-Dyspnea 10 Item Short Form - Part I. Over the past 7 days, how short of breath did you get with each of these activities?: Dressing yourself without help. Please indicate why you did not do this in the past 7 days.", "preferredTerm": "FACIT-Dyspnea 10 Item Short Form - Part I: Dressing Why Not", "submissionValue": "FAC084-Part I: Dressing Why Not", "synonyms": ["FAC084-Part I: Dressing Why Not"]}, {"conceptId": "C147643", "definition": "Functional Assessment of Chronic Illness Therapy-Dyspnea 10 Item Short Form - Part I. Over the past 7 days, how short of breath did you get with each of these activities?: Dressing yourself without help.", "preferredTerm": "FACIT-Dyspnea 10 Item Short Form - Part I: Dressing Without Help", "submissionValue": "FAC084-Part I: Dressing Without Help", "synonyms": ["FAC084-Part I: Dressing Without Help"]}, {"conceptId": "C147658", "definition": "Functional Assessment of Chronic Illness Therapy-Dyspnea 10 Item Short Form - Part I. Over the past 7 days, how short of breath did you get with each of these activities?: Lifting something weighing 10-20 lbs (about 4.5-9kg, like a large bag of groceries). Please indicate why you did not do this in the past 7 days.", "preferredTerm": "FACIT-Dyspnea 10 Item Short Form - Part I: Lifting 10-20 Lbs Why Not", "submissionValue": "FAC084-Part I: Lifting 10-20 Lbs Why Not", "synonyms": ["FAC084-Part I: Lifting 10-20 Lbs Why Not"]}, {"conceptId": "C147657", "definition": "Functional Assessment of Chronic Illness Therapy-Dyspnea 10 Item Short Form - Part I. Over the past 7 days, how short of breath did you get with each of these activities?: Lifting something weighing 10-20 lbs (about 4.5-9kg, like a large bag of groceries).", "preferredTerm": "FACIT-Dyspnea 10 Item Short Form - Part I: Lifting 10-20 Lbs", "submissionValue": "FAC084-Part I: Lifting 10-20 Lbs", "synonyms": ["FAC084-Part I: Lifting 10-20 Lbs"]}, {"conceptId": "C147656", "definition": "Functional Assessment of Chronic Illness Therapy-Dyspnea 10 Item Short Form - Part I. Over the past 7 days, how short of breath did you get with each of these activities?: Making a bed. Please indicate why you did not do this in the past 7 days.", "preferredTerm": "FACIT-Dyspnea 10 Item Short Form - Part I: Making a Bed Why Not", "submissionValue": "FAC084-Part I: Making a Bed Why Not", "synonyms": ["FAC084-Part I: Making a Bed Why Not"]}, {"conceptId": "C147655", "definition": "Functional Assessment of Chronic Illness Therapy-Dyspnea 10 Item Short Form - Part I. Over the past 7 days, how short of breath did you get with each of these activities?: Making a bed.", "preferredTerm": "FACIT-Dyspnea 10 Item Short Form - Part I: Making a Bed", "submissionValue": "FAC084-Part I: Making a Bed", "synonyms": ["FAC084-Part I: Making a Bed"]}, {"conceptId": "C147650", "definition": "Functional Assessment of Chronic Illness Therapy-Dyspnea 10 Item Short Form - Part I. Over the past 7 days, how short of breath did you get with each of these activities?: Preparing Meals. Please indicate why you did not do this in the past 7 days.", "preferredTerm": "FACIT-Dyspnea 10 Item Short Form - Part I: Preparing Meals Why Not", "submissionValue": "FAC084-Part I: Preparing Meals Why Not", "synonyms": ["FAC084-Part I: Preparing Meals Why Not"]}, {"conceptId": "C147649", "definition": "Functional Assessment of Chronic Illness Therapy-Dyspnea 10 Item Short Form - Part I. Over the past 7 days, how short of breath did you get with each of these activities?: Preparing Meals.", "preferredTerm": "FACIT-Dyspnea 10 Item Short Form - Part I: Preparing Meals", "submissionValue": "FAC084-Part I: Preparing Meals", "synonyms": ["FAC084-Part I: Preparing Meals"]}, {"conceptId": "C147654", "definition": "Functional Assessment of Chronic Illness Therapy-Dyspnea 10 Item Short Form - Part I. Over the past 7 days, how short of breath did you get with each of these activities?: Sweeping or mopping. Please indicate why you did not do this in the past 7 days.", "preferredTerm": "FACIT-Dyspnea 10 Item Short Form - Part I: Sweeping/Mopping Why Not", "submissionValue": "FAC084-Part I: Sweeping/Mopping Why Not", "synonyms": ["FAC084-Part I: Sweeping/Mopping Why Not"]}, {"conceptId": "C147653", "definition": "Functional Assessment of Chronic Illness Therapy-Dyspnea 10 Item Short Form - Part I. Over the past 7 days, how short of breath did you get with each of these activities?: Sweeping or mopping.", "preferredTerm": "FACIT-Dyspnea 10 Item Short Form - Part I: Sweeping/Mopping", "submissionValue": "FAC084-Part I: Sweeping/Mopping", "synonyms": ["FAC084-Part I: Sweeping/Mopping"]}, {"conceptId": "C147646", "definition": "Functional Assessment of Chronic Illness Therapy-Dyspnea 10 Item Short Form - Part I. Over the past 7 days, how short of breath did you get with each of these activities?: Walking 50 steps/paces on flat ground at a normal speed without stopping. Please indicate why you did not do this in the past 7 days.", "preferredTerm": "FACIT-Dyspnea 10 Item Short Form - Part I: Walk 50 Steps Why Not", "submissionValue": "FAC084-Part I: Walk 50 Steps Why Not", "synonyms": ["FAC084-Part I: Walk 50 Steps Why Not"]}, {"conceptId": "C147645", "definition": "Functional Assessment of Chronic Illness Therapy-Dyspnea 10 Item Short Form - Part I. Over the past 7 days, how short of breath did you get with each of these activities?: Walking 50 steps/paces on flat ground at a normal speed without stopping.", "preferredTerm": "FACIT-Dyspnea 10 Item Short Form - Part I: Walk 50 Steps", "submissionValue": "FAC084-Part I: Walk 50 Steps", "synonyms": ["FAC084-Part I: Walk 50 Steps"]}, {"conceptId": "C147662", "definition": "Functional Assessment of Chronic Illness Therapy-Dyspnea 10 Item Short Form - Part I. Over the past 7 days, how short of breath did you get with each of these activities?: Walking (faster than your usual speed) for 1/2 mile (almost 1 km) without stopping. Please indicate why you did not do this in the past 7 days.", "preferredTerm": "FACIT-Dyspnea 10 Item Short Form - Part I: Walk for 1/2 Mile Why Not", "submissionValue": "FAC084-Part I: Walk for 1/2 Mile Why Not", "synonyms": ["FAC084-Part I: Walk for 1/2 Mile Why Not"]}, {"conceptId": "C147661", "definition": "Functional Assessment of Chronic Illness Therapy-Dyspnea 10 Item Short Form - Part I. Over the past 7 days, how short of breath did you get with each of these activities?: Walking (faster than your usual speed) for 1/2 mile (almost 1 km) without stopping.", "preferredTerm": "FACIT-Dyspnea 10 Item Short Form - Part I: Walk for 1/2 Mile", "submissionValue": "FAC084-Part I: Walk for 1/2 Mile", "synonyms": ["FAC084-Part I: Walk for 1/2 Mile"]}, {"conceptId": "C147648", "definition": "Functional Assessment of Chronic Illness Therapy-Dyspnea 10 Item Short Form - Part I. Over the past 7 days, how short of breath did you get with each of these activities?: Walking up 20 stairs (2 flights) without stopping. Please indicate why you did not do this in the past 7 days.", "preferredTerm": "FACIT-Dyspnea 10 Item Short Form - Part I: Walk Up 20 Stairs Why Not", "submissionValue": "FAC084-Part I: Walk Up 20 Stairs Why Not", "synonyms": ["FAC084-Part I: Walk Up 20 Stairs Why Not"]}, {"conceptId": "C147647", "definition": "Functional Assessment of Chronic Illness Therapy-Dyspnea 10 Item Short Form - Part I. Over the past 7 days, how short of breath did you get with each of these activities?: Walking up 20 stairs (2 flights) without stopping.", "preferredTerm": "FACIT-Dyspnea 10 Item Short Form - Part I: Walk Up 20 Stairs", "submissionValue": "FAC084-Part I: Walk Up 20 Stairs", "synonyms": ["FAC084-Part I: Walk Up 20 Stairs"]}, {"conceptId": "C147652", "definition": "Functional Assessment of Chronic Illness Therapy-Dyspnea 10 Item Short Form - Part I. Over the past 7 days, how short of breath did you get with each of these activities?: Washing dishes. Please indicate why you did not do this in the past 7 days.", "preferredTerm": "FACIT-Dyspnea 10 Item Short Form - Part I: Washing Dishes Why Not", "submissionValue": "FAC084-Part I: Washing Dishes Why Not", "synonyms": ["FAC084-Part I: Washing Dishes Why Not"]}, {"conceptId": "C147651", "definition": "Functional Assessment of Chronic Illness Therapy-Dyspnea 10 Item Short Form - Part I. Over the past 7 days, how short of breath did you get with each of these activities?: Washing dishes.", "preferredTerm": "FACIT-Dyspnea 10 Item Short Form - Part I: Washing Dishes", "submissionValue": "FAC084-Part I: Washing Dishes", "synonyms": ["FAC084-Part I: Washing Dishes"]}, {"conceptId": "C147671", "definition": "Functional Assessment of Chronic Illness Therapy-Dyspnea 10 Item Short Form - Part II Functional Limitation. Considering your shortness of breath over the past 7 days, rate the amount of difficulty you had when doing the following activities: Carrying something weighing 10-20 lbs (about 4.5-9kg, like a large bag of groceries) from one room to another.", "preferredTerm": "FACIT-Dyspnea 10 Item Short Form - Part II: Carry 10-20 Lbs", "submissionValue": "FAC084-Part II: Carry 10-20 Lbs", "synonyms": ["FAC084-Part II: Carry 10-20 Lbs"]}, {"conceptId": "C147663", "definition": "Functional Assessment of Chronic Illness Therapy-Dyspnea 10 Item Short Form - Part II Functional Limitation. Considering your shortness of breath over the past 7 days, rate the amount of difficulty you had when doing the following activities: Dressing yourself without help.", "preferredTerm": "FACIT-Dyspnea 10 Item Short Form - Part II: Dressing Without Help", "submissionValue": "FAC084-Part II: Dressing Without Help", "synonyms": ["FAC084-Part II: Dressing Without Help"]}, {"conceptId": "C147670", "definition": "Functional Assessment of Chronic Illness Therapy-Dyspnea 10 Item Short Form - Part II Functional Limitation. Considering your shortness of breath over the past 7 days, rate the amount of difficulty you had when doing the following activities: Lifting something weighing 10-20 lbs (about 4.5-9kg, like a large bag of groceries).", "preferredTerm": "FACIT-Dyspnea 10 Item Short Form - Part II: Lifting 10-20 Lbs", "submissionValue": "FAC084-Part II: Lifting 10-20 Lbs", "synonyms": ["FAC084-Part II: Lifting 10-20 Lbs"]}, {"conceptId": "C147669", "definition": "Functional Assessment of Chronic Illness Therapy-Dyspnea 10 Item Short Form - Part II Functional Limitation. Considering your shortness of breath over the past 7 days, rate the amount of difficulty you had when doing the following activities: Making a bed.", "preferredTerm": "FACIT-Dyspnea 10 Item Short Form - Part II: Making a Bed", "submissionValue": "FAC084-Part II: Making a Bed", "synonyms": ["FAC084-Part II: Making a Bed"]}, {"conceptId": "C147666", "definition": "Functional Assessment of Chronic Illness Therapy-Dyspnea 10 Item Short Form - Part II Functional Limitation. Considering your shortness of breath over the past 7 days, rate the amount of difficulty you had when doing the following activities: Preparing meals.", "preferredTerm": "FACIT-Dyspnea 10 Item Short Form - Part II: Preparing Meals", "submissionValue": "FAC084-Part II: Preparing Meals", "synonyms": ["FAC084-Part II: Preparing Meals"]}, {"conceptId": "C147668", "definition": "Functional Assessment of Chronic Illness Therapy-Dyspnea 10 Item Short Form - Part II Functional Limitation. Considering your shortness of breath over the past 7 days, rate the amount of difficulty you had when doing the following activities: Sweeping or mopping.", "preferredTerm": "FACIT-Dyspnea 10 Item Short Form - Part II: Sweeping/Mopping", "submissionValue": "FAC084-Part II: Sweeping/Mopping", "synonyms": ["FAC084-Part II: Sweeping/Mopping"]}, {"conceptId": "C147664", "definition": "Functional Assessment of Chronic Illness Therapy-Dyspnea 10 Item Short Form - Part II Functional Limitation. Considering your shortness of breath over the past 7 days, rate the amount of difficulty you had when doing the following activities: Walking 50 steps/paces on flat ground at a normal speed without stopping.", "preferredTerm": "FACIT-Dyspnea 10 Item Short Form - Part II: Walk 50 Steps", "submissionValue": "FAC084-Part II: Walk 50 Steps", "synonyms": ["FAC084-Part II: Walk 50 Steps"]}, {"conceptId": "C147672", "definition": "Functional Assessment of Chronic Illness Therapy-Dyspnea 10 Item Short Form - Part II Functional Limitation. Considering your shortness of breath over the past 7 days, rate the amount of difficulty you had when doing the following activities: Walking (faster than your usual speed) for 1/2 mile (almost 1 km) without stopping.", "preferredTerm": "FACIT-Dyspnea 10 Item Short Form - Part II: Walk for 1/2 Mile", "submissionValue": "FAC084-Part II: Walk for 1/2 Mile", "synonyms": ["FAC084-Part II: Walk for 1/2 Mile"]}, {"conceptId": "C147665", "definition": "Functional Assessment of Chronic Illness Therapy-Dyspnea 10 Item Short Form - Part II Functional Limitation. Considering your shortness of breath over the past 7 days, rate the amount of difficulty you had when doing the following activities: Walking up 20 stairs (2 flights) without stopping.", "preferredTerm": "FACIT-Dyspnea 10 Item Short Form - Part II: Walk Up 20 Stairs", "submissionValue": "FAC084-Part II: Walk Up 20 Stairs", "synonyms": ["FAC084-Part II: Walk Up 20 Stairs"]}, {"conceptId": "C147667", "definition": "Functional Assessment of Chronic Illness Therapy-Dyspnea 10 Item Short Form - Part II Functional Limitation. Considering your shortness of breath over the past 7 days, rate the amount of difficulty you had when doing the following activities: Washing dishes.", "preferredTerm": "FACIT-Dyspnea 10 Item Short Form - Part II: Washing Dishes", "submissionValue": "FAC084-Part II: Washing Dishes", "synonyms": ["FAC084-Part II: Washing Dishes"]}]}