{"_links": {"parentPackage": {"href": "/mdr/ct/packages/sdtmct-2022-09-30", "title": "SDTM Controlled Terminology Package 51 Effective 2022-09-30", "type": "Terminology"}, "priorVersion": {"href": "/mdr/ct/packages/sdtmct-2022-06-24/codelists/C161626", "title": "CDISC Clinical Classification E-TRIP Test Name Terminology", "type": "Code List"}, "rootItem": {"href": "/mdr/root/ct/sdtmct/codelists/C161626", "title": "Version-agnostic anchor resource for codelist C161626", "type": "Root Value Domain"}, "self": {"href": "/mdr/ct/packages/sdtmct-2022-09-30/codelists/C161626", "title": "CDISC Clinical Classification E-TRIP Test Name Terminology", "type": "Code List"}}, "conceptId": "C161626", "definition": "Emory Treatment Resistance Interview for PTSD test name.", "extensible": "false", "name": "Emory Treatment Resistance Interview for PTSD Clinical Classification Test Name", "preferredTerm": "CDISC Clinical Classification E-TRIP Test Name Terminology", "submissionValue": "ETRP01TN", "synonyms": ["Emory Treatment Resistance Interview for PTSD Clinical Classification Test Name"], "terms": [{"conceptId": "C161760", "definition": "Emory Treatment Resistance Interview for PTSD - Medication total points.", "preferredTerm": "E-TRIP - Medication Total Points", "submissionValue": "ETRP01-Medication Total Points", "synonyms": ["ETRP01-Medication Total Points"]}, {"conceptId": "C161761", "definition": "Emory Treatment Resistance Interview for PTSD - Psychotherapy total points.", "preferredTerm": "E-TRIP - Psychotherapy Total Points", "submissionValue": "ETRP01-Psychotherapy Total Points", "synonyms": ["ETRP01-Psychotherapy Total Points"]}, {"conceptId": "C161762", "definition": "Emory Treatment Resistance Interview for PTSD - Total points.", "preferredTerm": "E-TRIP - Total Points", "submissionValue": "ETRP01-Total Points", "synonyms": ["ETRP01-Total Points"]}]}