{"_links": {"parentPackage": {"href": "/mdr/ct/packages/sdtmct-2022-09-30", "title": "SDTM Controlled Terminology Package 51 Effective 2022-09-30", "type": "Terminology"}, "priorVersion": {"href": "/mdr/ct/packages/sdtmct-2022-06-24/codelists/C170523", "title": "CDISC Clinical Classification FAS-NACC UDS Version 3.0 Test Code Terminology", "type": "Code List"}, "rootItem": {"href": "/mdr/root/ct/sdtmct/codelists/C170523", "title": "Version-agnostic anchor resource for codelist C170523", "type": "Root Value Domain"}, "self": {"href": "/mdr/ct/packages/sdtmct-2022-09-30/codelists/C170523", "title": "CDISC Clinical Classification FAS-NACC UDS Version 3.0 Test Code Terminology", "type": "Code List"}}, "conceptId": "C170523", "definition": "Functional Assessment Scale-NACC UDS Version 3.0 test code.", "extensible": "false", "name": "Functional Assessment Scale-NACC UDS Version 3.0 Clinical Classification Test Code", "preferredTerm": "CDISC Clinical Classification FAS-NACC UDS Version 3.0 Test Code Terminology", "submissionValue": "FASNA1TC", "synonyms": ["Functional Assessment Scale-NACC UDS Version 3.0 Clinical Classification Test Code"], "terms": [{"conceptId": "C170647", "definition": "Functional Assessment Scale-NACC UDS V3.0 - Writing checks, paying bills, or balancing a checkbook.", "preferredTerm": "FAS-NACC UDS Version 3.0 - Writing Checks, Paying Bills", "submissionValue": "FASNA101", "synonyms": ["FASNA1-Writing Checks, Paying Bills"]}, {"conceptId": "C170648", "definition": "Functional Assessment Scale-NACC UDS V3.0 - Assembling tax records, business affairs, or other papers.", "preferredTerm": "FAS-NACC UDS Version 3.0 - Assembling Tax Records", "submissionValue": "FASNA102", "synonyms": ["FASNA1-Assembling Tax Records"]}, {"conceptId": "C170649", "definition": "Functional Assessment Scale-NACC UDS V3.0 - Shopping alone for clothes, household necessities, or groceries.", "preferredTerm": "FAS-NACC UDS Version 3.0 - Shopping Alone for Clothes", "submissionValue": "FASNA103", "synonyms": ["FASNA1-Shopping Alone for Clothes"]}, {"conceptId": "C170650", "definition": "Functional Assessment Scale-NACC UDS V3.0 - Playing a game of skill such as bridge or chess, working on a hobby.", "preferredTerm": "FAS-NACC UDS Version 3.0 - Playing a Game of Skill", "submissionValue": "FASNA104", "synonyms": ["FASNA1-Playing a Game of Skill"]}, {"conceptId": "C170651", "definition": "Functional Assessment Scale-NACC UDS V3.0 - Heating water, making a cup of coffee, turning off the stove.", "preferredTerm": "FAS-NACC UDS Version 3.0 - Heating Water, Making Coffee", "submissionValue": "FASNA105", "synonyms": ["FASNA1-Heating Water, Making Coffee"]}, {"conceptId": "C170652", "definition": "Functional Assessment Scale-NACC UDS V3.0 - Preparing a balanced meal.", "preferredTerm": "FAS-NACC UDS Version 3.0 - Preparing a Balanced Meal", "submissionValue": "FASNA106", "synonyms": ["FASNA1-Preparing a Balanced Meal"]}, {"conceptId": "C170653", "definition": "Functional Assessment Scale-NACC UDS V3.0 - Keeping track of current events.", "preferredTerm": "FAS-NACC UDS Version 3.0 - Keeping Track of Current Events", "submissionValue": "FASNA107", "synonyms": ["FASNA1-Keeping Track of Current Events"]}, {"conceptId": "C170654", "definition": "Functional Assessment Scale-NACC UDS V3.0 - Paying attention to and understanding a TV program, book, or magazine.", "preferredTerm": "FAS-NACC UDS Version 3.0 - Paying Attention and Understanding TV", "submissionValue": "FASNA108", "synonyms": ["FASNA1-Paying Attention/Understanding TV"]}, {"conceptId": "C170655", "definition": "Functional Assessment Scale-NACC UDS V3.0 - Remembering appointments, family occasions, holidays, medications.", "preferredTerm": "FAS-NACC UDS Version 3.0 - Remembering Appointments", "submissionValue": "FASNA109", "synonyms": ["FASNA1-Remembering Appointments"]}, {"conceptId": "C170656", "definition": "Functional Assessment Scale-NACC UDS V3.0 - Traveling out of the neighborhood, driving, or arranging to take public transportation.", "preferredTerm": "FAS-NACC UDS Version 3.0 - Traveling Out of the Neighborhood", "submissionValue": "FASNA110", "synonyms": ["FASNA1-Traveling Out of the Neighborhood"]}]}