{"_links": {"parentPackage": {"href": "/mdr/ct/packages/sdtmct-2022-09-30", "title": "SDTM Controlled Terminology Package 51 Effective 2022-09-30", "type": "Terminology"}, "priorVersion": {"href": "/mdr/ct/packages/sdtmct-2022-06-24/codelists/C170445", "title": "CDISC SDTM Integumentary System Test Code Terminology", "type": "Code List"}, "rootItem": {"href": "/mdr/root/ct/sdtmct/codelists/C170445", "title": "Version-agnostic anchor resource for codelist C170445", "type": "Root Value Domain"}, "self": {"href": "/mdr/ct/packages/sdtmct-2022-09-30/codelists/C170445", "title": "CDISC SDTM Integumentary System Test Code Terminology", "type": "Code List"}}, "conceptId": "C170445", "definition": "A terminology codelist to describe the test codes for examinations of the integumentary system.", "extensible": "true", "name": "Integumentary System Test Code", "preferredTerm": "CDISC SDTM Integumentary System Test Code Terminology", "submissionValue": "INTEGUCD", "synonyms": ["Integumentary System Test Code"], "terms": [{"conceptId": "C170575", "definition": "A relative measurement (ratio or percentage) of the affected body surface area to total body surface area.", "preferredTerm": "Affected Body Surface Area to Total Body Surface Area Ratio Measurement", "submissionValue": "ABSABSA", "synonyms": ["Affected Body Surface Area/Total Body Surface Area", "Affected BSA/Total BSA"]}, {"conceptId": "C74580", "definition": "A distinctive characteristic of the skin marked by the amount of sebum secreted by sebaceous glands.", "preferredTerm": "Skin Type", "submissionValue": "SKINTYP", "synonyms": ["Skin Type"]}]}