{"_links": {"parentPackage": {"href": "/mdr/ct/packages/sdtmct-2022-09-30", "title": "SDTM Controlled Terminology Package 51 Effective 2022-09-30", "type": "Terminology"}, "priorVersion": {"href": "/mdr/ct/packages/sdtmct-2022-06-24/codelists/C170444", "title": "CDISC SDTM Integumentary System Test Name Terminology", "type": "Code List"}, "rootItem": {"href": "/mdr/root/ct/sdtmct/codelists/C170444", "title": "Version-agnostic anchor resource for codelist C170444", "type": "Root Value Domain"}, "self": {"href": "/mdr/ct/packages/sdtmct-2022-09-30/codelists/C170444", "title": "CDISC SDTM Integumentary System Test Name Terminology", "type": "Code List"}}, "conceptId": "C170444", "definition": "A terminology codelist to describe the test names for examinations of the integumentary system.", "extensible": "true", "name": "Integumentary System Test Name", "preferredTerm": "CDISC SDTM Integumentary System Test Name Terminology", "submissionValue": "INTEGU", "synonyms": ["Integumentary System Test Name"], "terms": [{"conceptId": "C170575", "definition": "A relative measurement (ratio or percentage) of the affected body surface area to total body surface area.", "preferredTerm": "Affected Body Surface Area to Total Body Surface Area Ratio Measurement", "submissionValue": "Affected BSA/Total BSA", "synonyms": ["Affected Body Surface Area/Total Body Surface Area", "Affected BSA/Total BSA"]}, {"conceptId": "C74580", "definition": "A distinctive characteristic of the skin marked by the amount of sebum secreted by sebaceous glands.", "preferredTerm": "Skin Type", "submissionValue": "Skin Type", "synonyms": ["Skin Type"]}]}