{"_links": {"parentPackage": {"href": "/mdr/ct/packages/sdtmct-2022-09-30", "title": "SDTM Controlled Terminology Package 51 Effective 2022-09-30", "type": "Terminology"}, "priorVersion": {"href": "/mdr/ct/packages/sdtmct-2022-06-24/codelists/C170524", "title": "CDISC Questionnaire EORTC QLQ-CR29 Version 2.1 Test Name Terminology", "type": "Code List"}, "rootItem": {"href": "/mdr/root/ct/sdtmct/codelists/C170524", "title": "Version-agnostic anchor resource for codelist C170524", "type": "Root Value Domain"}, "self": {"href": "/mdr/ct/packages/sdtmct-2022-09-30/codelists/C170524", "title": "CDISC Questionnaire EORTC QLQ-CR29 Version 2.1 Test Name Terminology", "type": "Code List"}}, "conceptId": "C170524", "definition": "European Organisation for the Research and Treatment of Cancer Quality of Life Questionnaire - Colorectal Version 2.1 test name.", "extensible": "false", "name": "European Organisation for the Research and Treatment of Cancer Quality of Life Questionnaire - Colorectal Version 2.1 Questionnaire Test Name", "preferredTerm": "CDISC Questionnaire EORTC QLQ-CR29 Version 2.1 Test Name Terminology", "submissionValue": "EOR06TN", "synonyms": ["European Organisation for the Research and Treatment of Cancer Quality of Life Questionnaire - Colorectal Version 2.1 Questionnaire Test Name"], "terms": [{"conceptId": "C170673", "definition": "European Organisation for the Research and Treatment of Cancer Quality of Life Questionnaire - Colorectal Version 2.1 - During the past week: Have you been dissatisfied with your body?", "preferredTerm": "EORTC QLQ-CR29 Version 2.1 - Been Dissatisfied With Your Body", "submissionValue": "EOR06-Been Dissatisfied With Your Body", "synonyms": ["EOR06-Been Dissatisfied With Your Body"]}, {"conceptId": "C170663", "definition": "European Organisation for the Research and Treatment of Cancer Quality of Life Questionnaire - Colorectal Version 2.1 - During the past week: Did you have a bloated feeling in your abdomen?", "preferredTerm": "EORTC QLQ-CR29 Version 2.1 - Bloated Feeling in Your Abdomen", "submissionValue": "EOR06-Bloated Feeling in Your Abdomen", "synonyms": ["EOR06-Bloated Feeling in Your Abdomen"]}, {"conceptId": "C170666", "definition": "European Organisation for the Research and Treatment of Cancer Quality of Life Questionnaire - Colorectal Version 2.1 - During the past week: Did you have a dry mouth?", "preferredTerm": "EORTC QLQ-CR29 Version 2.1 - Did You Have a Dry Mouth", "submissionValue": "EOR06-Did You Have a Dry Mouth", "synonyms": ["EOR06-Did You Have a Dry Mouth"]}, {"conceptId": "C170661", "definition": "European Organisation for the Research and Treatment of Cancer Quality of Life Questionnaire - Colorectal Version 2.1 - During the past week: Did you have abdominal pain?", "preferredTerm": "EORTC QLQ-CR29 Version 2.1 - Did You Have Abdominal Pain", "submissionValue": "EOR06-Did You Have Abdominal Pain", "synonyms": ["EOR06-Did You Have Abdominal Pain"]}, {"conceptId": "C170674", "definition": "European Organisation for the Research and Treatment of Cancer Quality of Life Questionnaire - Colorectal Version 2.1 - During the past week: Do you have a stoma bag (colostomy/ileostomy)?", "preferredTerm": "EORTC QLQ-CR29 Version 2.1 - Do You Have Stoma Bag", "submissionValue": "EOR06-Do You Have Stoma Bag", "synonyms": ["EOR06-Do You Have Stoma Bag"]}, {"conceptId": "C170687", "definition": "European Organisation for the Research and Treatment of Cancer Quality of Life Questionnaire - Colorectal Version 2.1 - During the past week: Did you feel embarrassed because of your bowel movement?", "preferredTerm": "EORTC QLQ-CR29 Version 2.1 - Embarrassed Because Bowel Movement", "submissionValue": "EOR06-Embarrassed Because Bowel Movement", "synonyms": ["EOR06-Embarrassed Because Bowel Movement"]}, {"conceptId": "C170680", "definition": "European Organisation for the Research and Treatment of Cancer Quality of Life Questionnaire - Colorectal Version 2.1 - During the past week: Did you feel embarrassed because of your stoma?", "preferredTerm": "EORTC QLQ-CR29 Version 2.1 - Feel Embarrassed Because of Stoma", "submissionValue": "EOR06-Feel Embarrassed Because of Stoma", "synonyms": ["EOR06-Feel Embarrassed Because of Stoma"]}, {"conceptId": "C170672", "definition": "European Organisation for the Research and Treatment of Cancer Quality of Life Questionnaire - Colorectal Version 2.1 - During the past week: Have you been feeling less feminine/masculine as a result of your disease or treatment?", "preferredTerm": "EORTC QLQ-CR29 Version 2.1 - Feeling Less Feminine/Masculine", "submissionValue": "EOR06-Feeling Less Feminine/Masculine", "synonyms": ["EOR06-Feeling Less Feminine/Masculine"]}, {"conceptId": "C170671", "definition": "European Organisation for the Research and Treatment of Cancer Quality of Life Questionnaire - Colorectal Version 2.1 - During the past week: Have you felt physically less attractive as a result of your disease or treatment?", "preferredTerm": "EORTC QLQ-CR29 Version 2.1 - Felt Physically Less Attractive", "submissionValue": "EOR06-Felt Physically Less Attractive", "synonyms": ["EOR06-Felt Physically Less Attractive"]}, {"conceptId": "C170678", "definition": "European Organisation for the Research and Treatment of Cancer Quality of Life Questionnaire - Colorectal Version 2.1 - During the past week: Did frequent bag changes occur during the day?", "preferredTerm": "EORTC QLQ-CR29 Version 2.1 - Frequent Bag Changes During Day", "submissionValue": "EOR06-Frequent Bag Changes During Day", "synonyms": ["EOR06-Frequent Bag Changes During Day"]}, {"conceptId": "C170679", "definition": "European Organisation for the Research and Treatment of Cancer Quality of Life Questionnaire - Colorectal Version 2.1 - During the past week: Did frequent bag changes occur during the night?", "preferredTerm": "EORTC QLQ-CR29 Version 2.1 - Frequent Bag Changes During Night", "submissionValue": "EOR06-Frequent Bag Changes During Night", "synonyms": ["EOR06-Frequent Bag Changes During Night"]}, {"conceptId": "C170685", "definition": "European Organisation for the Research and Treatment of Cancer Quality of Life Questionnaire - Colorectal Version 2.1 - During the past week: Did frequent bowel movements occur during the day?", "preferredTerm": "EORTC QLQ-CR29 Version 2.1 - Frequent Bowel Movements Day", "submissionValue": "EOR06-Frequent Bowel Movements Day", "synonyms": ["EOR06-Frequent Bowel Movements Day"]}, {"conceptId": "C170686", "definition": "European Organisation for the Research and Treatment of Cancer Quality of Life Questionnaire - Colorectal Version 2.1 - During the past week: Did frequent bowel movements occur during the night?", "preferredTerm": "EORTC QLQ-CR29 Version 2.1 - Frequent Bowel Movements Night", "submissionValue": "EOR06-Frequent Bowel Movements Night", "synonyms": ["EOR06-Frequent Bowel Movements Night"]}, {"conceptId": "C170664", "definition": "European Organisation for the Research and Treatment of Cancer Quality of Life Questionnaire - Colorectal Version 2.1 - During the past week: Have you had blood in your stools?", "preferredTerm": "EORTC QLQ-CR29 Version 2.1 - Have You Had Blood in Your Stools", "submissionValue": "EOR06-Have You Had Blood in Your Stools", "synonyms": ["EOR06-Have You Had Blood in Your Stools"]}, {"conceptId": "C170665", "definition": "European Organisation for the Research and Treatment of Cancer Quality of Life Questionnaire - Colorectal Version 2.1 - During the past week: Have you had mucus in your stools?", "preferredTerm": "EORTC QLQ-CR29 Version 2.1 - Have You Had Mucus in Your Stools", "submissionValue": "EOR06-Have You Had Mucus in Your Stools", "synonyms": ["EOR06-Have You Had Mucus in Your Stools"]}, {"conceptId": "C170683", "definition": "European Organisation for the Research and Treatment of Cancer Quality of Life Questionnaire - Colorectal Version 2.1 - During the past week: Have you had leakage of stools from your back passage?", "preferredTerm": "EORTC QLQ-CR29 Version 2.1 - Leakage of Stools Back Passage", "submissionValue": "EOR06-Leakage of Stools Back Passage", "synonyms": ["EOR06-Leakage of Stools Back Passage"]}, {"conceptId": "C170676", "definition": "European Organisation for the Research and Treatment of Cancer Quality of Life Questionnaire - Colorectal Version 2.1 - During the past week: Have you had leakage of stools from your stoma bag?", "preferredTerm": "EORTC QLQ-CR29 Version 2.1 - Leakage of Stools From Stoma Bag", "submissionValue": "EOR06-Leakage of Stools From Stoma Bag", "synonyms": ["EOR06-Leakage of Stools From Stoma Bag"]}, {"conceptId": "C170667", "definition": "European Organisation for the Research and Treatment of Cancer Quality of Life Questionnaire - Colorectal Version 2.1 - During the past week: Have you lost hair as a result of your treatment?", "preferredTerm": "EORTC QLQ-CR29 Version 2.1 - Lost Hair as Result of Treatment", "submissionValue": "EOR06-Lost Hair as Result of Treatment", "synonyms": ["EOR06-Lost Hair as Result of Treatment"]}, {"conceptId": "C170689", "definition": "European Organisation for the Research and Treatment of Cancer Quality of Life Questionnaire - Colorectal Version 2.1 - During the past 4 weeks: For men only: Did you have difficulty getting or maintaining an erection?", "preferredTerm": "EORTC QLQ-CR29 Version 2.1 - Men: Difficulty Getting Erection", "submissionValue": "EOR06-Men: Difficulty Getting Erection", "synonyms": ["EOR06-Men: Difficulty Getting Erection"]}, {"conceptId": "C170688", "definition": "European Organisation for the Research and Treatment of Cancer Quality of Life Questionnaire - Colorectal Version 2.1 - During the past 4 weeks: For men only: To what extent were you interested in sex?", "preferredTerm": "EORTC QLQ-CR29 Version 2.1 - Men: Extent Interested in Sex", "submissionValue": "EOR06-Men: Extent Interested in Sex", "synonyms": ["EOR06-Men: Extent Interested in Sex"]}, {"conceptId": "C170662", "definition": "European Organisation for the Research and Treatment of Cancer Quality of Life Questionnaire - Colorectal Version 2.1 - During the past week: Did you have pain in your buttocks/anal area/rectum?", "preferredTerm": "EORTC QLQ-CR29 Version 2.1 - Pain in Buttocks/Anal Area/Rectum", "submissionValue": "EOR06-Pain in Buttocks/Anal Area/Rectum", "synonyms": ["EOR06-Pain in Buttocks/Anal Area/Rectum"]}, {"conceptId": "C170660", "definition": "European Organisation for the Research and Treatment of Cancer Quality of Life Questionnaire - Colorectal Version 2.1 - During the past week: Did you have pain when you urinated?", "preferredTerm": "EORTC QLQ-CR29 Version 2.1 - Pain When You Urinated", "submissionValue": "EOR06-Pain When You Urinated", "synonyms": ["EOR06-Pain When You Urinated"]}, {"conceptId": "C170681", "definition": "European Organisation for the Research and Treatment of Cancer Quality of Life Questionnaire - Colorectal Version 2.1 - During the past week: Did you have problems caring for your stoma?", "preferredTerm": "EORTC QLQ-CR29 Version 2.1 - Problems Caring for Your Stoma", "submissionValue": "EOR06-Problems Caring for Your Stoma", "synonyms": ["EOR06-Problems Caring for Your Stoma"]}, {"conceptId": "C170668", "definition": "European Organisation for the Research and Treatment of Cancer Quality of Life Questionnaire - Colorectal Version 2.1 - During the past week: Have you had problems with your sense of taste?", "preferredTerm": "EORTC QLQ-CR29 Version 2.1 - Problems With Your Sense of Taste", "submissionValue": "EOR06-Problems With Your Sense of Taste", "synonyms": ["EOR06-Problems With Your Sense of Taste"]}, {"conceptId": "C170684", "definition": "European Organisation for the Research and Treatment of Cancer Quality of Life Questionnaire - Colorectal Version 2.1 - During the past week: Have you had sore skin around your anal area?", "preferredTerm": "EORTC QLQ-CR29 Version 2.1 - Sore Skin Around Your Anal Area", "submissionValue": "EOR06-Sore Skin Around Your Anal Area", "synonyms": ["EOR06-Sore Skin Around Your Anal Area"]}, {"conceptId": "C170677", "definition": "European Organisation for the Research and Treatment of Cancer Quality of Life Questionnaire - Colorectal Version 2.1 - During the past week: Have you had sore skin around your stoma?", "preferredTerm": "EORTC QLQ-CR29 Version 2.1 - Sore Skin Around Your Stoma", "submissionValue": "EOR06-Sore Skin Around Your Stoma", "synonyms": ["EOR06-Sore Skin Around Your Stoma"]}, {"conceptId": "C170682", "definition": "European Organisation for the Research and Treatment of Cancer Quality of Life Questionnaire - Colorectal Version 2.1 - During the past week: Have you had unintentional release of gas/flatulence from your back passage?", "preferredTerm": "EORTC QLQ-CR29 Version 2.1 - Unintentional Gas Back Passage", "submissionValue": "EOR06-Unintentional Gas Back Passage", "synonyms": ["EOR06-Unintentional Gas Back Passage"]}, {"conceptId": "C170675", "definition": "European Organisation for the Research and Treatment of Cancer Quality of Life Questionnaire - Colorectal Version 2.1 - During the past week: Have you had unintentional release of gas/flatulence from your stoma bag?", "preferredTerm": "EORTC QLQ-CR29 Version 2.1 - Unintentional Gas From Stoma Bag", "submissionValue": "EOR06-Unintentional Gas From Stoma Bag", "synonyms": ["EOR06-Unintentional Gas From Stoma Bag"]}, {"conceptId": "C170659", "definition": "European Organisation for the Research and Treatment of Cancer Quality of Life Questionnaire - Colorectal Version 2.1 - During the past week: Have you had any unintentional release (leakage) of urine?", "preferredTerm": "EORTC QLQ-CR29 Version 2.1 - Unintentional Release of Urine", "submissionValue": "EOR06-Unintentional Release of Urine", "synonyms": ["EOR06-Unintentional Release of Urine"]}, {"conceptId": "C170657", "definition": "European Organisation for the Research and Treatment of Cancer Quality of Life Questionnaire - Colorectal Version 2.1 - During the past week: Did you urinate frequently during the day?", "preferredTerm": "EORTC QLQ-CR29 Version 2.1 - Urinate Frequently During Day", "submissionValue": "EOR06-Urinate Frequently During Day", "synonyms": ["EOR06-Urinate Frequently During Day"]}, {"conceptId": "C170658", "definition": "European Organisation for the Research and Treatment of Cancer Quality of Life Questionnaire - Colorectal Version 2.1 - During the past week: Did you urinate frequently during the night?", "preferredTerm": "EORTC QLQ-CR29 Version 2.1 - Urinate Frequently During Night", "submissionValue": "EOR06-Urinate Frequently During Night", "synonyms": ["EOR06-Urinate Frequently During Night"]}, {"conceptId": "C170690", "definition": "European Organisation for the Research and Treatment of Cancer Quality of Life Questionnaire - Colorectal Version 2.1 - During the past 4 weeks: For women only: To what extent were you interested in sex?", "preferredTerm": "EORTC QLQ-CR29 Version 2.1 - Women: Extent Interested in Sex", "submissionValue": "EOR06-Women: Extent Interested in Sex", "synonyms": ["EOR06-Women: Extent Interested in Sex"]}, {"conceptId": "C170691", "definition": "European Organisation for the Research and Treatment of Cancer Quality of Life Questionnaire - Colorectal Version 2.1 - During the past 4 weeks: For women only: Did you have pain or discomfort during intercourse?", "preferredTerm": "EORTC QLQ-CR29 Version 2.1 - Women: Pain or Discomfort Intercourse", "submissionValue": "EOR06-Women: Pain/Discomfort Intercourse", "synonyms": ["EOR06-Women: Pain/Discomfort Intercourse"]}, {"conceptId": "C170669", "definition": "European Organisation for the Research and Treatment of Cancer Quality of Life Questionnaire - Colorectal Version 2.1 - During the past week: Were you worried about your health in the future?", "preferredTerm": "EORTC QLQ-CR29 Version 2.1 - Worried About Your Health Future", "submissionValue": "EOR06-Worried About Your Health Future", "synonyms": ["EOR06-Worried About Your Health Future"]}, {"conceptId": "C170670", "definition": "European Organisation for the Research and Treatment of Cancer Quality of Life Questionnaire - Colorectal Version 2.1 - During the past week: Have you worried about your weight?", "preferredTerm": "EORTC QLQ-CR29 Version 2.1 - Worried About Your Weight", "submissionValue": "EOR06-Worried About Your Weight", "synonyms": ["EOR06-Worried About Your Weight"]}]}