{"_links": {"parentPackage": {"href": "/mdr/ct/packages/sdtmct-2022-09-30", "title": "SDTM Controlled Terminology Package 51 Effective 2022-09-30", "type": "Terminology"}, "priorVersion": {"href": "/mdr/ct/packages/sdtmct-2022-06-24/codelists/C171413", "title": "CDISC Clinical Classification SAS Test Code Terminology", "type": "Code List"}, "rootItem": {"href": "/mdr/root/ct/sdtmct/codelists/C171413", "title": "Version-agnostic anchor resource for codelist C171413", "type": "Root Value Domain"}, "self": {"href": "/mdr/ct/packages/sdtmct-2022-09-30/codelists/C171413", "title": "CDISC Clinical Classification SAS Test Code Terminology", "type": "Code List"}}, "conceptId": "C171413", "definition": "Riker Sedation-Agitation Scale test code.", "extensible": "false", "name": "Riker Sedation-Agitation Scale Clinical Classification Test Code", "preferredTerm": "CDISC Clinical Classification SAS Test Code Terminology", "submissionValue": "SAS01TC", "synonyms": ["Riker Sedation-Agitation Scale Clinical Classification Test Code"], "terms": [{"conceptId": "C171420", "definition": "Riker Sedation-Agitation Scale - Score.", "preferredTerm": "SAS - Score", "submissionValue": "SAS0101", "synonyms": ["SAS01-Score"]}]}