{"_links": {"parentPackage": {"href": "/mdr/ct/packages/sdtmct-2022-09-30", "title": "SDTM Controlled Terminology Package 51 Effective 2022-09-30", "type": "Terminology"}, "priorVersion": {"href": "/mdr/ct/packages/sdtmct-2022-06-24/codelists/C177719", "title": "CDISC Questionnaire SF12 v2.0 Standard Test Name Terminology", "type": "Code List"}, "rootItem": {"href": "/mdr/root/ct/sdtmct/codelists/C177719", "title": "Version-agnostic anchor resource for codelist C177719", "type": "Root Value Domain"}, "self": {"href": "/mdr/ct/packages/sdtmct-2022-09-30/codelists/C177719", "title": "CDISC Questionnaire SF12 v2.0 Standard Test Name Terminology", "type": "Code List"}}, "conceptId": "C177719", "definition": "Short Form 12 Health Survey Standard, US Version 2.0 test name.", "extensible": "false", "name": "Short Form 12 Health Survey Standard, US Version 2.0 Questionnaire Test Name", "preferredTerm": "CDISC Questionnaire SF12 v2.0 Standard Test Name Terminology", "submissionValue": "SF123TN", "synonyms": ["Short Form 12 Health Survey Standard, US Version 2.0 Questionnaire Test Name"], "terms": [{"conceptId": "C180481", "definition": "The Short Form 12 Health Survey Standard, US Version 2.0 - Bodily pain 0-100 score.", "preferredTerm": "SF12 v2.0 Standard - Bodily Pain 0-100 Score", "submissionValue": "SF123-Bodily Pain 0-100 Score", "synonyms": ["SF123-Bodily Pain 0-100 Score"]}, {"conceptId": "C180489", "definition": "The Short Form 12 Health Survey Standard, US Version 2.0 - Bodily pain norm-based score.", "preferredTerm": "SF12 v2.0 Standard - Bodily Pain Norm-Based Score", "submissionValue": "SF123-Bodily Pain Norm-Based Score", "synonyms": ["SF123-Bodily Pain Norm-Based Score"]}, {"conceptId": "C177892", "definition": "The Short Form 12 Health Survey Standard, US Version 2.0 - Please give the one answer that comes closest to the way you have been feeling. How much of the time during the past 4 weeks - did you have a lot of energy?", "preferredTerm": "SF12 v2.0 Standard - Did You Have a Lot of Energy", "submissionValue": "SF123-Did You Have a Lot of Energy", "synonyms": ["SF123-Did You Have a Lot of Energy"]}, {"conceptId": "C177888", "definition": "The Short Form 12 Health Survey Standard, US Version 2.0 - During the past 4 weeks, how much of the time have you had any of the following problems with your work or other regular daily activities as a result of any emotional problems (such as feeling depressed or anxious) - accomplished less than you would like.", "preferredTerm": "SF12 v2.0 Standard - Emotional: Accomplished Less", "submissionValue": "SF123-Emotional: Accomplished Less", "synonyms": ["SF123-Emotional: Accomplished Less"]}, {"conceptId": "C177889", "definition": "The Short Form 12 Health Survey Standard, US Version 2.0 - During the past 4 weeks, how much of the time have you had any of the following problems with your work or other regular daily activities as a result of any emotional problems (such as feeling depressed or anxious) - did work or other activities less carefully than usual.", "preferredTerm": "SF12 v2.0 Standard - Emotional: Did Work Less Carefully", "submissionValue": "SF123-Emotional: Did Work Less Carefully", "synonyms": ["SF123-Emotional: Did Work Less Carefully"]}, {"conceptId": "C180482", "definition": "The Short Form 12 Health Survey Standard, US Version 2.0 - General health 0-100 score.", "preferredTerm": "SF12 v2.0 Standard - General Health 0-100 Score", "submissionValue": "SF123-General Health 0-100 Score", "synonyms": ["SF123-General Health 0-100 Score"]}, {"conceptId": "C180490", "definition": "The Short Form 12 Health Survey Standard, US Version 2.0 - General health norm-based score.", "preferredTerm": "SF12 v2.0 Standard - General Health Norm-Based Score", "submissionValue": "SF123-General Health Norm-Based Score", "synonyms": ["SF123-General Health Norm-Based Score"]}, {"conceptId": "C177891", "definition": "The Short Form 12 Health Survey Standard, US Version 2.0 - Please give the one answer that comes closest to the way you have been feeling. How much of the time during the past 4 weeks - have you felt calm and peaceful?", "preferredTerm": "SF12 v2.0 Standard - Have You Felt Calm and Peaceful", "submissionValue": "SF123-Have You Felt Calm and Peaceful", "synonyms": ["SF123-Have You Felt Calm and Peaceful"]}, {"conceptId": "C177883", "definition": "The Short Form 12 Health Survey Standard, US Version 2.0 - In general, would you say your health is.", "preferredTerm": "SF12 v2.0 Standard - In General You Say Your Health Is", "submissionValue": "SF123-In General You Say Your Health Is", "synonyms": ["SF123-In General You Say Your Health Is"]}, {"conceptId": "C177885", "definition": "The Short Form 12 Health Survey Standard, US Version 2.0 - How much does your health now limit you in - climbing several flights of stairs.", "preferredTerm": "SF12 v2.0 Standard - Limit Climbing Several Flights", "submissionValue": "SF123-Limit Climbing Several Flights", "synonyms": ["SF123-Limit Climbing Several Flights"]}, {"conceptId": "C177884", "definition": "The Short Form 12 Health Survey Standard, US Version 2.0 - How much does your health now limit you in - moderate activities, such as moving a table, pushing a vacuum cleaner, bowling, or playing golf.", "preferredTerm": "SF12 v2.0 Standard - Limit Moderate Activities", "submissionValue": "SF123-Limit Moderate Activities", "synonyms": ["SF123-Limit Moderate Activities"]}, {"conceptId": "C180496", "definition": "The Short Form 12 Health Survey Standard, US Version 2.0 - Mental component score.", "preferredTerm": "SF12 v2.0 Standard - Mental Component Score", "submissionValue": "SF123-Mental Component Score", "synonyms": ["SF123-Mental Component Score"]}, {"conceptId": "C180486", "definition": "The Short Form 12 Health Survey Standard, US Version 2.0 - Mental health 0-100 score.", "preferredTerm": "SF12 v2.0 Standard - Mental Health 0-100 Score", "submissionValue": "SF123-Mental Health 0-100 Score", "synonyms": ["SF123-Mental Health 0-100 Score"]}, {"conceptId": "C180494", "definition": "The Short Form 12 Health Survey Standard, US Version 2.0 - Mental health norm-based score.", "preferredTerm": "SF12 v2.0 Standard - Mental Health Norm-Based Score", "submissionValue": "SF123-Mental Health Norm-Based Score", "synonyms": ["SF123-Mental Health Norm-Based Score"]}, {"conceptId": "C177890", "definition": "The Short Form 12 Health Survey Standard, US Version 2.0 - During the past 4 weeks, how much did pain interfere with your normal work (including both work outside the home and housework)?", "preferredTerm": "SF12 v2.0 Standard - Pain Interfere With Normal Work", "submissionValue": "SF123-Pain Interfere With Normal Work", "synonyms": ["SF123-Pain Interfere With Normal Work"]}, {"conceptId": "C180487", "definition": "The Short Form 12 Health Survey Standard, US Version 2.0 - Physical functioning norm-based score.", "preferredTerm": "SF12 v2.0 Standard - Phys Functioning Norm-Based Score", "submissionValue": "SF123-Phys Functioning Norm-Based Score", "synonyms": ["SF123-Phys Functioning Norm-Based Score"]}, {"conceptId": "C180495", "definition": "The Short Form 12 Health Survey Standard, US Version 2.0 - Physical component score.", "preferredTerm": "SF12 v2.0 Standard - Physical Component Score", "submissionValue": "SF123-Physical Component Score", "synonyms": ["SF123-Physical Component Score"]}, {"conceptId": "C180479", "definition": "The Short Form 12 Health Survey Standard, US Version 2.0 - Physical functioning 0-100 score.", "preferredTerm": "SF12 v2.0 Standard - Physical Functioning 0-100 Score", "submissionValue": "SF123-Physical Functioning 0-100 Score", "synonyms": ["SF123-Physical Functioning 0-100 Score"]}, {"conceptId": "C177886", "definition": "The Short Form 12 Health Survey Standard, US Version 2.0 - During the past 4 weeks, how much of the time have you had any of the following problems with your work or other regular daily activities as a result of your physical health - accomplished less than you would like.", "preferredTerm": "SF12 v2.0 Standard - Physical: Accomplished Less", "submissionValue": "SF123-Physical: Accomplished Less", "synonyms": ["SF123-Physical: Accomplished Less"]}, {"conceptId": "C177887", "definition": "The Short Form 12 Health Survey Standard, US Version 2.0 - During the past 4 weeks, how much of the time have you had any of the following problems with your work or other regular daily activities as a result of your physical health - were limited in the kind of work or other activities.", "preferredTerm": "SF12 v2.0 Standard - Physical: Limited Kind of Work", "submissionValue": "SF123-Physical: Limited Kind of Work", "synonyms": ["SF123-Physical: Limited Kind of Work"]}, {"conceptId": "C180485", "definition": "The Short Form 12 Health Survey Standard, US Version 2.0 - Role emotional 0-100 score.", "preferredTerm": "SF12 v2.0 Standard - Role Emotional 0-100 Score", "submissionValue": "SF123-Role Emotional 0-100 Score", "synonyms": ["SF123-Role Emotional 0-100 Score"]}, {"conceptId": "C180493", "definition": "The Short Form 12 Health Survey Standard, US Version 2.0 - Role emotional norm-based score.", "preferredTerm": "SF12 v2.0 Standard - Role Emotional Norm-Based Score", "submissionValue": "SF123-Role Emotional Norm-Based Score", "synonyms": ["SF123-Role Emotional Norm-Based Score"]}, {"conceptId": "C180480", "definition": "The Short Form 12 Health Survey Standard, US Version 2.0 - Role physical 0-100 score.", "preferredTerm": "SF12 v2.0 Standard - Role Physical 0-100 Score", "submissionValue": "SF123-Role Physical 0-100 Score", "synonyms": ["SF123-Role Physical 0-100 Score"]}, {"conceptId": "C180488", "definition": "The Short Form 12 Health Survey Standard, US Version 2.0 - Role physical norm-based score.", "preferredTerm": "SF12 v2.0 Standard - Role Physical Norm-Based Score", "submissionValue": "SF123-Role Physical Norm-Based Score", "synonyms": ["SF123-Role Physical Norm-Based Score"]}, {"conceptId": "C180497", "definition": "The Short Form 12 Health Survey Standard, US Version 2.0 - SF-6D_R2 (utility index release 2) score.", "preferredTerm": "SF12 v2.0 Standard - SF-6D_R2 (Util Index Rel 2) Score", "submissionValue": "SF123-SF-6D_R2 (Util Index Rel 2) Score", "synonyms": ["SF123-SF-6D_R2 (Util Index Rel 2) Score"]}, {"conceptId": "C180492", "definition": "The Short Form 12 Health Survey Standard, US Version 2.0 - Social function norm-based score.", "preferredTerm": "SF12 v2.0 Standard - Social Function Norm-Based Score", "submissionValue": "SF123-Social Function Norm-Based Score", "synonyms": ["SF123-Social Function Norm-Based Score"]}, {"conceptId": "C180484", "definition": "The Short Form 12 Health Survey Standard, US Version 2.0 - Social functioning 0-100 score.", "preferredTerm": "SF12 v2.0 Standard - Social Functioning 0-100 Score", "submissionValue": "SF123-Social Functioning 0-100 Score", "synonyms": ["SF123-Social Functioning 0-100 Score"]}, {"conceptId": "C177894", "definition": "The Short Form 12 Health Survey Standard, US Version 2.0 - During the past 4 weeks, how much of the time has your physical health or emotional problems interfered with your social activities (like visiting friends, relatives, etc.)?", "preferredTerm": "SF12 v2.0 Standard - Time Physical Health, Emotional Interfered", "submissionValue": "SF123-Time Phys/Emotional Interfered", "synonyms": ["SF123-Time Phys/Emotional Interfered"]}, {"conceptId": "C180483", "definition": "The Short Form 12 Health Survey Standard, US Version 2.0 - Vitality 0-100 score.", "preferredTerm": "SF12 v2.0 Standard - Vitality 0-100 Score", "submissionValue": "SF123-Vitality 0-100 Score", "synonyms": ["SF123-Vitality 0-100 Score"]}, {"conceptId": "C180491", "definition": "The Short Form 12 Health Survey Standard, US Version 2.0 - Vitality norm-based score.", "preferredTerm": "SF12 v2.0 Standard - Vitality Norm-Based Score", "submissionValue": "SF123-Vitality Norm-Based Score", "synonyms": ["SF123-Vitality Norm-Based Score"]}, {"conceptId": "C177893", "definition": "The Short Form 12 Health Survey Standard, US Version 2.0 - Please give the one answer that comes closest to the way you have been feeling. How much of the time during the past 4 weeks - have you felt downhearted and depressed?", "preferredTerm": "SF12 v2.0 Standard - You Felt Downhearted and Depressed", "submissionValue": "SF123-You Felt Downhearted and Depressed", "synonyms": ["SF123-You Felt Downhearted and Depressed"]}]}