{"_links": {"parentPackage": {"href": "/mdr/ct/packages/sdtmct-2022-09-30", "title": "SDTM Controlled Terminology Package 51 Effective 2022-09-30", "type": "Terminology"}, "priorVersion": {"href": "/mdr/ct/packages/sdtmct-2022-06-24/codelists/C177706", "title": "CDISC Questionnaire SF8 v1.0 Acute Test Code Terminology", "type": "Code List"}, "rootItem": {"href": "/mdr/root/ct/sdtmct/codelists/C177706", "title": "Version-agnostic anchor resource for codelist C177706", "type": "Root Value Domain"}, "self": {"href": "/mdr/ct/packages/sdtmct-2022-09-30/codelists/C177706", "title": "CDISC Questionnaire SF8 v1.0 Acute Test Code Terminology", "type": "Code List"}}, "conceptId": "C177706", "definition": "Short Form 8 Health Survey Acute, US Version 1.0 test code.", "extensible": "false", "name": "Short Form 8 Health Survey Acute, US Version 1.0 Questionnaire Test Code", "preferredTerm": "CDISC Questionnaire SF8 v1.0 Acute Test Code Terminology", "submissionValue": "SF82TC", "synonyms": ["Short Form 8 Health Survey Acute, US Version 1.0 Questionnaire Test Code"], "terms": [{"conceptId": "C177811", "definition": "The Short Form 8 Health Survey Acute, US Version 1.0 - Overall, how would you rate your health during the past week?", "preferredTerm": "SF8 v1.0 Acute - Overall How You Rate Your Health", "submissionValue": "SF8201", "synonyms": ["SF82-Overall How You Rate Your Health"]}, {"conceptId": "C177812", "definition": "The Short Form 8 Health Survey Acute, US Version 1.0 - During the past week, how much did physical health problems limit your usual physical activities (walking, climbing stairs)?", "preferredTerm": "SF8 v1.0 Acute - How Much Limit Physical Activities", "submissionValue": "SF8202", "synonyms": ["SF82-How Much Limit Physical Activities"]}, {"conceptId": "C177813", "definition": "The Short Form 8 Health Survey Acute, US Version 1.0 - During the past week, how much difficulty did you have doing your daily work, both at home and away from home, because of your physical health?", "preferredTerm": "SF8 v1.0 Acute - Difficulty Doing Daily Work", "submissionValue": "SF8203", "synonyms": ["SF82-Difficulty Doing Daily Work"]}, {"conceptId": "C177814", "definition": "The Short Form 8 Health Survey Acute, US Version 1.0 - How much bodily pain have you had during the past week?", "preferredTerm": "SF8 v1.0 Acute - How Much Bodily Pain Have You Had", "submissionValue": "SF8204", "synonyms": ["SF82-How Much Bodily Pain Have You Had"]}, {"conceptId": "C177815", "definition": "The Short Form 8 Health Survey Acute, US Version 1.0 - During the past week, how much energy did you have?", "preferredTerm": "SF8 v1.0 Acute - How Much Energy Did You Have", "submissionValue": "SF8205", "synonyms": ["SF82-How Much Energy Did You Have"]}, {"conceptId": "C177816", "definition": "The Short Form 8 Health Survey Acute, US Version 1.0 - During the past week, how much did your physical health or emotional problems limit your usual social activities with family or friends?", "preferredTerm": "SF8 v1.0 Acute - Physical, Emotional Limit Activities", "submissionValue": "SF8206", "synonyms": ["SF82-Physical/Emotional Limit Activities"]}, {"conceptId": "C177817", "definition": "The Short Form 8 Health Survey Acute, US Version 1.0 - During the past week, how much have you been bothered by emotional problems (such as feeling anxious, depressed or irritable)?", "preferredTerm": "SF8 v1.0 Acute - Bothered by Emotional Problems", "submissionValue": "SF8207", "synonyms": ["SF82-Bothered by Emotional Problems"]}, {"conceptId": "C177818", "definition": "The Short Form 8 Health Survey Acute, US Version 1.0 - During the past week, how much did personal or emotional problems keep you from doing your usual work, school or other daily activities?", "preferredTerm": "SF8 v1.0 Acute - Emotional Problems Keep From Work", "submissionValue": "SF8208", "synonyms": ["SF82-Emotional Problems Keep From Work"]}, {"conceptId": "C180434", "definition": "The Short Form 8 Health Survey Acute, US Version 1.0 - Physical functioning norm-based score.", "preferredTerm": "SF8 v1.0 Acute - Physical Functioning Norm-Based Score", "submissionValue": "SF8209", "synonyms": ["SF82-Phys. Functioning Norm-Based Score"]}, {"conceptId": "C180435", "definition": "The Short Form 8 Health Survey Acute, US Version 1.0 - Role physical norm-based score.", "preferredTerm": "SF8 v1.0 Acute - Role Physical Norm-Based Score", "submissionValue": "SF8210", "synonyms": ["SF82-Role Physical Norm-Based Score"]}, {"conceptId": "C180436", "definition": "The Short Form 8 Health Survey Acute, US Version 1.0 - Bodily pain norm-based score.", "preferredTerm": "SF8 v1.0 Acute - Bodily Pain Norm-Based Score", "submissionValue": "SF8211", "synonyms": ["SF82-Bodily Pain Norm-Based Score"]}, {"conceptId": "C180437", "definition": "The Short Form 8 Health Survey Acute, US Version 1.0 - General health norm-based score.", "preferredTerm": "SF8 v1.0 Acute - General Health Norm-Based Score", "submissionValue": "SF8212", "synonyms": ["SF82-General Health Norm-Based Score"]}, {"conceptId": "C180438", "definition": "The Short Form 8 Health Survey Acute, US Version 1.0 - Vitality norm-based score.", "preferredTerm": "SF8 v1.0 Acute - Vitality Norm-Based Score", "submissionValue": "SF8213", "synonyms": ["SF82-Vitality Norm-Based Score"]}, {"conceptId": "C180439", "definition": "The Short Form 8 Health Survey Acute, US Version 1.0 - Social functioning norm-based score.", "preferredTerm": "SF8 v1.0 Acute - Social Functioning Norm-Based Score", "submissionValue": "SF8214", "synonyms": ["SF82-Social Functioning Norm-Based Score"]}, {"conceptId": "C180440", "definition": "The Short Form 8 Health Survey Acute, US Version 1.0 - Role emotional norm-based score.", "preferredTerm": "SF8 v1.0 Acute - Role Emotional Norm-Based Score", "submissionValue": "SF8215", "synonyms": ["SF82-Role Emotional Norm-Based Score"]}, {"conceptId": "C180441", "definition": "The Short Form 8 Health Survey Acute, US Version 1.0 - Mental health norm-based score.", "preferredTerm": "SF8 v1.0 Acute - Mental Health Norm-Based Score", "submissionValue": "SF8216", "synonyms": ["SF82-Mental Health Norm-Based Score"]}, {"conceptId": "C180442", "definition": "The Short Form 8 Health Survey Acute, US Version 1.0 - Physical component score.", "preferredTerm": "SF8 v1.0 Acute - Physical Component Score", "submissionValue": "SF8217", "synonyms": ["SF82-Physical Component Score"]}, {"conceptId": "C180443", "definition": "The Short Form 8 Health Survey Acute, US Version 1.0 - Mental component score.", "preferredTerm": "SF8 v1.0 Acute - Mental Component Score", "submissionValue": "SF8218", "synonyms": ["SF82-Mental Component Score"]}]}