{"_links": {"parentPackage": {"href": "/mdr/ct/packages/sdtmct-2022-09-30", "title": "SDTM Controlled Terminology Package 51 Effective 2022-09-30", "type": "Terminology"}, "priorVersion": {"href": "/mdr/ct/packages/sdtmct-2022-06-24/codelists/C177908", "title": "CDISC SDTM Collected Summarized Value Type Response Terminology", "type": "Code List"}, "rootItem": {"href": "/mdr/root/ct/sdtmct/codelists/C177908", "title": "Version-agnostic anchor resource for codelist C177908", "type": "Root Value Domain"}, "self": {"href": "/mdr/ct/packages/sdtmct-2022-09-30/codelists/C177908", "title": "CDISC SDTM Collected Summarized Value Type Response Terminology", "type": "Code List"}}, "conceptId": "C177908", "definition": "A terminology codelist relevant to the summary type for the source collected result or dose value.", "extensible": "true", "name": "Collected Summarized Value Type Response", "preferredTerm": "CDISC SDTM Collected Summarized Value Type Response Terminology", "submissionValue": "COLSTYP", "synonyms": ["Collected Summarized Value Type Response"], "terms": [{"conceptId": "C25564", "definition": "The largest value in quantity or degree in a set of values.", "preferredTerm": "Maximum", "submissionValue": "MAXIMUM"}, {"conceptId": "C181249", "definition": "A mean of a set of observations where the mathematic calculation is unspecified or unknown.", "preferredTerm": "Mean Based on Unspecified Calculation", "submissionValue": "MEAN"}, {"conceptId": "C53319", "definition": "The sum of the values of all observations or data points divided by the number of observations; an arithmetic average. (CDISC Glossary)", "preferredTerm": "Arithmetic Mean", "submissionValue": "MEAN, ARITHMETIC", "synonyms": ["Arithmetic Mean"]}, {"conceptId": "C94906", "definition": "The n-th root of the multiple products of n values; a geometric average.", "preferredTerm": "Geometric Mean", "submissionValue": "MEAN, GEOMETRIC", "synonyms": ["Geometric Mean"]}, {"conceptId": "C28007", "definition": "The middle value in an ordered set of values. In the case of an even number of values, it is the average of the two middle values.", "preferredTerm": "Median", "submissionValue": "MEDIAN"}, {"conceptId": "C25570", "definition": "The smallest value in quantity or degree in a set of values.", "preferredTerm": "Minimum", "submissionValue": "MINIMUM"}, {"conceptId": "C43517", "definition": "The lowest value in terms of position, place, magnitude, level, or rank.", "preferredTerm": "Lowest", "submissionValue": "NADIR", "synonyms": ["Lowest"]}]}