{"_links": {"parentPackage": {"href": "/mdr/ct/packages/sdtmct-2022-09-30", "title": "SDTM Controlled Terminology Package 51 Effective 2022-09-30", "type": "Terminology"}, "priorVersion": {"href": "/mdr/ct/packages/sdtmct-2022-06-24/codelists/C179591", "title": "CDISC SDTM Non-host Organism Identifiers Parameter Code Terminology", "type": "Code List"}, "rootItem": {"href": "/mdr/root/ct/sdtmct/codelists/C179591", "title": "Version-agnostic anchor resource for codelist C179591", "type": "Root Value Domain"}, "self": {"href": "/mdr/ct/packages/sdtmct-2022-09-30/codelists/C179591", "title": "CDISC SDTM Non-host Organism Identifiers Parameter Code Terminology", "type": "Code List"}}, "conceptId": "C179591", "definition": "Parameter codes used to describe the levels of taxonomic and non-taxonomic nomenclature of a microorganism.", "extensible": "true", "name": "Non-host Organism Identifier Parameters Code", "preferredTerm": "CDISC SDTM Non-host Organism Identifiers Parameter Code Terminology", "submissionValue": "OIPRMCD", "synonyms": ["Non-host Organism Identifier Parameters Code"], "terms": [{"conceptId": "C179767", "definition": "A taxonomic parameter for the specification of clade of the organism.", "preferredTerm": "Clade", "submissionValue": "CLADE", "synonyms": ["Clade"]}, {"conceptId": "C179768", "definition": "A non-taxonomic parameter that can specify the genotype of the organism.", "preferredTerm": "Organism by Genotype", "submissionValue": "GENOTYPE", "synonyms": ["Genotype"]}, {"conceptId": "C179769", "definition": "A non-taxonomic parameter that can specify the geographic location where the organism was identified, collected or came from.", "preferredTerm": "Organism by Geographic Origin", "submissionValue": "GEOORIG", "synonyms": ["Geographical Origin"]}, {"conceptId": "C179770", "definition": "A non-taxonomic parameter that can specify the group of the organism.", "preferredTerm": "Organism by Group", "submissionValue": "GROUP", "synonyms": ["Group"]}, {"conceptId": "C179771", "definition": "A non-taxonomic parameter that can specify the isolate of the organism.", "preferredTerm": "Organism Isolate", "submissionValue": "ISOLATE", "synonyms": ["Isolate"]}, {"conceptId": "C179772", "definition": "A taxonomic parameter for the specification of lineage of the organism.", "preferredTerm": "Organism Lineage", "submissionValue": "LINEAGE", "synonyms": ["Lineage"]}, {"conceptId": "C43685", "definition": "The accession number for a gene within the National Center for Biotechnology Information (NCBI) GenBank database.", "preferredTerm": "GenBank Accession Number", "submissionValue": "NCBIGBID", "synonyms": ["GenBank ID", "NCBI GenBank ID"]}, {"conceptId": "C179773", "definition": "The taxonomy identifier for an organism within the National Center for Biotechnology Information (NCBI) Taxonomy database.", "preferredTerm": "NCBI Taxonomy Identifier", "submissionValue": "NCBITXID", "synonyms": ["NCBI Taxonomy ID"]}, {"conceptId": "C187964", "definition": "A non-taxonomic parameter that can specify the pathotype of the organism, which is classified based on its resulting pathogenicity on a specified host.", "preferredTerm": "Pathotype", "submissionValue": "PATHOTYP", "synonyms": ["Pathotype"]}, {"conceptId": "C179774", "definition": "A non-taxonomic parameter that can specify the pseudotype viral backbone of the engineered virus.", "preferredTerm": "Organism Pseudotype Viral Backbone", "submissionValue": "PSDOBACK", "synonyms": ["Pseudotype Viral Backbone"]}, {"conceptId": "C45293", "definition": "A taxonomic parameter for the specification of species of the organism.", "preferredTerm": "Species", "submissionValue": "SPECIES", "synonyms": ["Species"]}, {"conceptId": "C187963", "definition": "A non-taxonomic parameter that can specify the spoligotype of a microorganism. A spoligotype is obtained from reading of the unique spacer sequences in a highly conserved region in the genetic material of the microorganism.", "preferredTerm": "Spoligotype", "submissionValue": "SPOLIGO", "synonyms": ["Spacer Oligonucleotide Type", "Spoligotype"]}, {"conceptId": "C14419", "definition": "A non-taxonomic parameter that can specify the strain of the organism.", "preferredTerm": "Organism Strain", "submissionValue": "STRAIN", "synonyms": ["Strain", "Strain Number"]}, {"conceptId": "C179775", "definition": "A non-taxonomic parameter that can specify the subtype of the organism.", "preferredTerm": "Organism by Subtype", "submissionValue": "SUBTYPE", "synonyms": ["Subtype"]}, {"conceptId": "C179776", "definition": "A non-taxonomic parameter that can specify the type of the organism.", "preferredTerm": "Organism by Type", "submissionValue": "TYPE", "synonyms": ["Type"]}, {"conceptId": "C179777", "definition": "A non-taxonomic parameter that can specify the year when the organism was collected or isolated.", "preferredTerm": "Organism by Year Collected", "submissionValue": "YEARCOLL", "synonyms": ["Year of Collection"]}]}