{"_links": {"parentPackage": {"href": "/mdr/ct/packages/sdtmct-2022-09-30", "title": "SDTM Controlled Terminology Package 51 Effective 2022-09-30", "type": "Terminology"}, "priorVersion": {"href": "/mdr/ct/packages/sdtmct-2022-06-24/codelists/C179589", "title": "CDISC SDTM Test Method Sensitivity Terminology", "type": "Code List"}, "rootItem": {"href": "/mdr/root/ct/sdtmct/codelists/C179589", "title": "Version-agnostic anchor resource for codelist C179589", "type": "Root Value Domain"}, "self": {"href": "/mdr/ct/packages/sdtmct-2022-09-30/codelists/C179589", "title": "CDISC SDTM Test Method Sensitivity Terminology", "type": "Code List"}}, "conceptId": "C179589", "definition": "Terminology relevant to the values that describe the sensitivity of the methodology with respect to observation, detection, or quantification.", "extensible": "true", "name": "Test Method Sensitivity", "preferredTerm": "CDISC SDTM Test Method Sensitivity Terminology", "submissionValue": "TSTMTHSN", "synonyms": ["Test Method Sensitivity"], "terms": [{"conceptId": "C179820", "definition": "Any test methodology that is able to detect or quantify a finding at a high sensitivity level, as compared to the sensitivities of other concurrently available methods.", "preferredTerm": "High Sensitivity Method", "submissionValue": "HIGH SENSITIVITY"}, {"conceptId": "C179821", "definition": "Any test methodology that is able to detect or quantify a finding at a low sensitivity level, as compared to the sensitivities of other concurrently available methods.", "preferredTerm": "Low Sensitivity Method", "submissionValue": "LOW SENSITIVITY"}, {"conceptId": "C179822", "definition": "Any test methodology that is able to detect or quantify a finding at an ultra-high sensitivity level, as compared to the sensitivities of other concurrently available methods.", "preferredTerm": "Ultra-High Sensitivity Method", "submissionValue": "ULTRA-HIGH SENSITIVITY"}]}