{"_links": {"parentPackage": {"href": "/mdr/ct/packages/sdtmct-2022-09-30", "title": "SDTM Controlled Terminology Package 51 Effective 2022-09-30", "type": "Terminology"}, "priorVersion": {"href": "/mdr/ct/packages/sdtmct-2022-06-24/codelists/C179592", "title": "CDISC SDTM Pancreatic Cancer Findings About Test Code Terminology", "type": "Code List"}, "rootItem": {"href": "/mdr/root/ct/sdtmct/codelists/C179592", "title": "Version-agnostic anchor resource for codelist C179592", "type": "Root Value Domain"}, "self": {"href": "/mdr/ct/packages/sdtmct-2022-09-30/codelists/C179592", "title": "CDISC SDTM Pancreatic Cancer Findings About Test Code Terminology", "type": "Code List"}}, "conceptId": "C179592", "definition": "Terminology relevant to the test codes that describe findings about an pancreatic cancer event or intervention.", "extensible": "true", "name": "Pancreatic Cancer Findings About Test Code", "preferredTerm": "CDISC SDTM Pancreatic Cancer Findings About Test Code Terminology", "submissionValue": "PAFATSCD", "synonyms": ["Pancreatic Cancer Findings About Test Code"], "terms": [{"conceptId": "C179451", "definition": "The anatomical location of the primary tumor site of disease.", "preferredTerm": "Primary Tumor Site", "submissionValue": "PRYSTUOG", "synonyms": ["Primary Site of Tumor Origin"]}]}