{"_links": {"parentPackage": {"href": "/mdr/ct/packages/sdtmct-2022-09-30", "title": "SDTM Controlled Terminology Package 51 Effective 2022-09-30", "type": "Terminology"}, "priorVersion": {"href": "/mdr/ct/packages/sdtmct-2022-06-24/codelists/C181170", "title": "CDISC Test Operational Objective Terminology", "type": "Code List"}, "rootItem": {"href": "/mdr/root/ct/sdtmct/codelists/C181170", "title": "Version-agnostic anchor resource for codelist C181170", "type": "Root Value Domain"}, "self": {"href": "/mdr/ct/packages/sdtmct-2022-09-30/codelists/C181170", "title": "CDISC Test Operational Objective Terminology", "type": "Code List"}}, "conceptId": "C181170", "definition": "A terminology codelist relevant to the description of the high-level purpose of the test at the operational level.", "extensible": "false", "name": "Test Operational Objective", "preferredTerm": "CDISC Test Operational Objective Terminology", "submissionValue": "TSTOPOBJ", "synonyms": ["Test Operational Objective"], "terms": [{"conceptId": "C181549", "definition": "A test whose operational purpose is to verify the presence or absence of a substance or organism.", "preferredTerm": "Confirmatory Test", "submissionValue": "CONFIRM"}, {"conceptId": "C181550", "definition": "A test whose operational purpose is to determine the amount or concentration of a substance or organism.", "preferredTerm": "Quantification Test", "submissionValue": "QUANTIFY"}, {"conceptId": "C181548", "definition": "A test whose operational purpose is to determine the presence or absence of a substance or organism.", "preferredTerm": "Screening Test", "submissionValue": "SCREEN"}]}