{"_links": {"parentPackage": {"href": "/mdr/ct/packages/sdtmct-2022-09-30", "title": "SDTM Controlled Terminology Package 51 Effective 2022-09-30", "type": "Terminology"}, "priorVersion": {"href": "/mdr/ct/packages/sdtmct-2022-06-24/codelists/C181180", "title": "CDISC SDTM Genomic Findings Test Detail Terminology", "type": "Code List"}, "rootItem": {"href": "/mdr/root/ct/sdtmct/codelists/C181180", "title": "Version-agnostic anchor resource for codelist C181180", "type": "Root Value Domain"}, "self": {"href": "/mdr/ct/packages/sdtmct-2022-09-30/codelists/C181180", "title": "CDISC SDTM Genomic Findings Test Detail Terminology", "type": "Code List"}}, "conceptId": "C181180", "definition": "Terminology relevant to the reportable qualifying the genomic assessment.", "extensible": "true", "name": "Genomic Findings Test Detail", "preferredTerm": "CDISC SDTM Genomic Findings Test Detail Terminology", "submissionValue": "GFTSDTL", "synonyms": ["Genomic Findings Test Detail"], "terms": [{"conceptId": "C189447", "definition": "The determination of the nucleotide sequence of the allele at a specific locus.", "preferredTerm": "Allele Sequence Analysis", "submissionValue": "ALLELE SEQUENCE"}, {"conceptId": "C181337", "definition": "An interpretive summary of the number of replicas of a gene or gene segment within a genome, as compared to a reference or assumed state.", "preferredTerm": "Copy Number Alteration Interpretation", "submissionValue": "COPY NUMBER ALTERATION INTERPRETATION"}, {"conceptId": "C181349", "definition": "A relative measurement (ratio) of the number of altered copies in the sample to the number of copies in the reference sequence.", "preferredTerm": "Copy Number Ratio", "submissionValue": "COPY NUMBER RATIO"}, {"conceptId": "C174330", "definition": "The determination of presence or absence of an entity in a specimen.", "preferredTerm": "Biological Detection Test", "submissionValue": "DETECTION"}, {"conceptId": "C181340", "definition": "The absolute number of fragments of genetic material that were detected.", "preferredTerm": "Fragment Count", "submissionValue": "FRAGMENT COUNT"}, {"conceptId": "C181338", "definition": "An indication as to whether a genetic sequence is transcribed into RNA.", "preferredTerm": "Genetic Transcription Indicator", "submissionValue": "GENETIC TRANSCRIPTION INDICATOR"}, {"conceptId": "C181339", "definition": "An interpretive summary of the pattern of genetic transcription.", "preferredTerm": "Genetic Transcription Interpretation", "submissionValue": "GENETIC TRANSCRIPTION INTERPRETATION"}, {"conceptId": "C45447", "definition": "The determination of the nucleotide sequence of the genetic material at a specific locus.", "preferredTerm": "Genotyping", "submissionValue": "GENOTYPE"}, {"conceptId": "C139285", "definition": "The overall state or condition of the variability in length of multiple, assessed microsatellite sequences.", "preferredTerm": "Microsatellite Instability Overall Status", "submissionValue": "MICROSATELLITE INSTABILITY OVERALL STATUS", "synonyms": ["Microsatellite Instability Overall Stat", "MSIOSTAT"]}, {"conceptId": "C181341", "definition": "A value that is adjusted via a formula or calculation, to facilitate comparison.", "preferredTerm": "Normalized Level", "submissionValue": "NORMALIZED LEVEL"}, {"conceptId": "C189448", "definition": "A quantitative assessment of the number of sequence variants within a region of interest, which has been normalized.", "preferredTerm": "Number of Normalized Sequence Variants Assessment", "submissionValue": "NORMALIZED NUMBER OF SEQUENCE VARIANTS"}, {"conceptId": "C45374", "definition": "The sequence of nucleotides within a genetic region of interest.", "preferredTerm": "Nucleotide Sequence", "submissionValue": "NUCLEOTIDE SEQUENCE"}, {"conceptId": "C181348", "definition": "The number of affected exons as compared to the reference sequence.", "preferredTerm": "Number of Altered Exons", "submissionValue": "NUMBER OF ALTERED EXONS"}, {"conceptId": "C189314", "definition": "A quantitative assessment of the number of repeating genetic sequences made up of cytosine, adenine, and guanine trinucleotides.", "preferredTerm": "Number of CAG Repeats", "submissionValue": "NUMBER OF CAG REPEATS"}, {"conceptId": "C181336", "definition": "The number of replicas of a particular gene sequence in a genome.", "preferredTerm": "Number of Gene Copies", "submissionValue": "NUMBER OF GENE COPIES", "synonyms": ["Gene Copy Number"]}, {"conceptId": "C181350", "definition": "A quantitative assessment of the number of sequence variants within a region of interest.", "preferredTerm": "Number of Sequence Variants", "submissionValue": "NUMBER OF SEQUENCE VARIANTS"}, {"conceptId": "C181342", "definition": "A relative ranking of the percent of total that the entity would equal or exceed.", "preferredTerm": "Percentile Rank", "submissionValue": "PERCENTILE RANK"}, {"conceptId": "C181343", "definition": "An inferred amino acid modification, based on sequence analysis of a genetic variation.", "preferredTerm": "Predicted Amino Acid Change", "submissionValue": "PREDICTED AMINO ACID CHANGE", "synonyms": ["Inferred Amino Acid Change"]}, {"conceptId": "C181344", "definition": "An inferred coding sequence modification, based on sequence analysis of a genetic variation.", "preferredTerm": "Predicted Coding Sequence Change", "submissionValue": "PREDICTED CODING SEQUENCE CHANGE", "synonyms": ["Inferred Coding Sequence Change"]}, {"conceptId": "C189449", "definition": "A description of the inferred nucleotide sequence at one or more paired loci.", "preferredTerm": "Predicted Diplotype", "submissionValue": "PREDICTED DIPLOTYPE", "synonyms": ["Inferred Diplotype", "Predicted Haplotype Pair"]}, {"conceptId": "C189446", "definition": "An indication as to whether the genomic variation product retains the original reading frame, as inferred from the coding sequence.", "preferredTerm": "Predicted In-Frame Indicator", "submissionValue": "PREDICTED IN-FRAME INDICATOR"}, {"conceptId": "C189451", "definition": "An inferred number of repeating genetic sequences made up of cytosine, adenine, and guanine trinucleotides.", "preferredTerm": "Predicted Number of CAG Repeats", "submissionValue": "PREDICTED NUMBER OF CAG REPEATS"}, {"conceptId": "C189450", "definition": "The observable characteristics as inferred from changes in the underlying genomic material.", "preferredTerm": "Predicted Phenotype", "submissionValue": "PREDICTED PHENOTYPE"}, {"conceptId": "C155320", "definition": "The total number of times a particular locus (site, nucleotide, amplicon, region) was sequenced.", "preferredTerm": "Read Depth", "submissionValue": "READ DEPTH", "synonyms": ["Depth of Coverage", "Total Mapped Reads", "Total Read Depth"]}, {"conceptId": "C189443", "definition": "The first or primary gene involved in the sequence rearrangement.", "preferredTerm": "Rearrangement Gene 1 Symbol", "submissionValue": "REARRANGEMENT GENE 1"}, {"conceptId": "C189444", "definition": "The second gene involved in the sequence rearrangement.", "preferredTerm": "Rearrangement Gene 2 Symbol", "submissionValue": "REARRANGEMENT GENE 2"}, {"conceptId": "C189657", "definition": "A categorization of the phenotypic or clinical significance of the genetic rearrangement.", "preferredTerm": "Genetic Rearrangement Functional Impact Classification", "submissionValue": "REARRANGEMENT IMPACT CLASSIFICATION"}, {"conceptId": "C189445", "definition": "The characterization or classification of the structural changes to the gene(s) as a consequence of the rearrangement.", "preferredTerm": "Rearrangement Type Classification", "submissionValue": "REARRANGEMENT TYPE"}, {"conceptId": "C25338", "definition": "A number or range of numeric values that assess and order a result or response for purposes of comparison.", "preferredTerm": "Score", "submissionValue": "SCORE", "synonyms": ["Score"]}, {"conceptId": "C181345", "definition": "A categorization of the phenotypic or clinical significance of the genomic variation.", "preferredTerm": "Genetic Variation Functional Impact Classification", "submissionValue": "VARIANT IMPACT CLASSIFICATION"}, {"conceptId": "C181346", "definition": "The number of times a particular variant within a locus (site, nucleotide, amplicon, region) was sequenced.", "preferredTerm": "Variant Read Depth", "submissionValue": "VARIANT READ DEPTH", "synonyms": ["Variant Mapped Reads"]}, {"conceptId": "C181347", "definition": "A relative measurement (ratio or percentage) of the variant read depth to total read depth.", "preferredTerm": "Variant Read Depth to Read Depth", "submissionValue": "VARIANT READ DEPTH/READ DEPTH", "synonyms": ["Variant Mapped Reads/Total Mapped Reads", "Variant Read Depth/Total Read Depth"]}, {"conceptId": "C181351", "definition": "An interpretive summary of the magnitude of the variant burden within the tumor.", "preferredTerm": "Variant Sequence Tumor Burden Interpretation", "submissionValue": "VARIANT SEQUENCE BURDEN INTERPRETATION"}]}