{"_links": {"parentPackage": {"href": "/mdr/ct/packages/sdtmct-2022-09-30", "title": "SDTM Controlled Terminology Package 51 Effective 2022-09-30", "type": "Terminology"}, "priorVersion": {"href": "/mdr/ct/packages/sdtmct-2022-06-24/codelists/C182464", "title": "CDISC Clinical Classification Abnormal Involuntary Movement Scale AIMS0101 Through AIMS0107 Original Response Terminology", "type": "Code List"}, "rootItem": {"href": "/mdr/root/ct/sdtmct/codelists/C182464", "title": "Version-agnostic anchor resource for codelist C182464", "type": "Root Value Domain"}, "self": {"href": "/mdr/ct/packages/sdtmct-2022-09-30/codelists/C182464", "title": "CDISC Clinical Classification Abnormal Involuntary Movement Scale AIMS0101 Through AIMS0107 Original Response Terminology", "type": "Code List"}}, "conceptId": "C182464", "definition": "Abnormal Involuntary Movement Scale original result for AIMS0101 through AIMS0107 test and test code.", "extensible": "false", "name": "Abnormal Involuntary Movement Scale Clinical Classification ORRES for AIMS0101 Through AIMS0107 TN/TC", "preferredTerm": "CDISC Clinical Classification Abnormal Involuntary Movement Scale AIMS0101 Through AIMS0107 Original Response Terminology", "submissionValue": "AIMS0101T07OR", "synonyms": ["Abnormal Involuntary Movement Scale Clinical Classification ORRES for AIMS0101 Through AIMS0107 TN/TC"], "terms": [{"conceptId": "C182674", "definition": "Abnormal Involuntary Movement Scale original result for AIMS0101 through AIMS0107-Mild.", "preferredTerm": "Abnormal Involuntary Movement Scale AIMS0101 Through AIMS0107 Original Result - Mild", "submissionValue": "Mild", "synonyms": ["AIMS0101 through AIMS0107-Mild"]}, {"conceptId": "C182673", "definition": "Abnormal Involuntary Movement Scale original result for AIMS0101 through AIMS0107-Minimal, may be extreme normal.", "preferredTerm": "Abnormal Involuntary Movement Scale AIMS0101 Through AIMS0107 Original Result - Minimal, may be extreme normal", "submissionValue": "Minimal, may be extreme normal", "synonyms": ["AIMS0101 through AIMS0107-Minimal, may be extreme normal"]}, {"conceptId": "C182675", "definition": "Abnormal Involuntary Movement Scale original result for AIMS0101 through AIMS0107-Moderate.", "preferredTerm": "Abnormal Involuntary Movement Scale AIMS0101 Through AIMS0107 Original Result - Moderate", "submissionValue": "Moderate", "synonyms": ["AIMS0101 through AIMS0107-Moderate"]}, {"conceptId": "C182672", "definition": "Abnormal Involuntary Movement Scale original result for AIMS0101 through AIMS0107-None.", "preferredTerm": "Abnormal Involuntary Movement Scale AIMS0101 Through AIMS0107 Original Result - None", "submissionValue": "None", "synonyms": ["AIMS0101 through AIMS0107-None"]}, {"conceptId": "C182676", "definition": "Abnormal Involuntary Movement Scale original result for AIMS0101 through AIMS0107-Severe.", "preferredTerm": "Abnormal Involuntary Movement Scale AIMS0101 Through AIMS0107 Original Result - Severe", "submissionValue": "Severe", "synonyms": ["AIMS0101 through AIMS0107-Severe"]}]}