{"_links": {"parentPackage": {"href": "/mdr/ct/packages/sdtmct-2022-09-30", "title": "SDTM Controlled Terminology Package 51 Effective 2022-09-30", "type": "Terminology"}, "priorVersion": {"href": "/mdr/ct/packages/sdtmct-2022-06-24/codelists/C182509", "title": "CDISC Clinical Classification ATLAS Score ATLAS102 Standardized Character Response Terminology", "type": "Code List"}, "rootItem": {"href": "/mdr/root/ct/sdtmct/codelists/C182509", "title": "Version-agnostic anchor resource for codelist C182509", "type": "Root Value Domain"}, "self": {"href": "/mdr/ct/packages/sdtmct-2022-09-30/codelists/C182509", "title": "CDISC Clinical Classification ATLAS Score ATLAS102 Standardized Character Response Terminology", "type": "Code List"}}, "conceptId": "C182509", "definition": "ATLAS standardized character result for ATLAS102 test and test code.", "extensible": "false", "name": "ATLAS Clinical Classification STRESC for ATLAS102 TN/TC", "preferredTerm": "CDISC Clinical Classification ATLAS Score ATLAS102 Standardized Character Response Terminology", "submissionValue": "ATLAS102STR", "synonyms": ["ATLAS Clinical Classification STRESC for ATLAS102 TN/TC"], "terms": [{"conceptId": "C182746", "definition": "ATLAS standardized character result for ATLAS102-No.", "preferredTerm": "ATLAS Score ATLAS102 Standardized Character Result 0", "submissionValue": "0", "synonyms": ["ATLAS102-0"]}, {"conceptId": "C182747", "definition": "ATLAS standardized character result for ATLAS102-Yes.", "preferredTerm": "ATLAS Score ATLAS102 Standardized Character Result 2", "submissionValue": "2", "synonyms": ["ATLAS102-2"]}]}