{"_links": {"parentPackage": {"href": "/mdr/ct/packages/sdtmct-2022-09-30", "title": "SDTM Controlled Terminology Package 51 Effective 2022-09-30", "type": "Terminology"}, "priorVersion": {"href": "/mdr/ct/packages/sdtmct-2022-06-24/codelists/C182518", "title": "CDISC Clinical Classification Kurtzke Functional System Scores KFSS105 Standardized Character Response Terminology", "type": "Code List"}, "rootItem": {"href": "/mdr/root/ct/sdtmct/codelists/C182518", "title": "Version-agnostic anchor resource for codelist C182518", "type": "Root Value Domain"}, "self": {"href": "/mdr/ct/packages/sdtmct-2022-09-30/codelists/C182518", "title": "CDISC Clinical Classification Kurtzke Functional System Scores KFSS105 Standardized Character Response Terminology", "type": "Code List"}}, "conceptId": "C182518", "definition": "Kurtzke Functional System Scores standardized character result for KFSS105 test and test code.", "extensible": "false", "name": "Kurtzke Functional System Scores Clinical Classification STRESC for KFSS105 TN/TC", "preferredTerm": "CDISC Clinical Classification Kurtzke Functional System Scores KFSS105 Standardized Character Response Terminology", "submissionValue": "KFSS105STR", "synonyms": ["Kurtzke Functional System Scores Clinical Classification STRESC for KFSS105 TN/TC"], "terms": [{"conceptId": "C182838", "definition": "Kurtzke Functional System Scores standardized character result for KFSS105-Normal.", "preferredTerm": "Kurtzke Functional System Scores KFSS105 Standardized Character Result 0", "submissionValue": "0", "synonyms": ["KFSS105-0"]}, {"conceptId": "C182839", "definition": "Kurtzke Functional System Scores standardized character result for KFSS105-Mild urinary hesitancy, urgency, or retention.", "preferredTerm": "Kurtzke Functional System Scores KFSS105 Standardized Character Result 1", "submissionValue": "1", "synonyms": ["KFSS105-1"]}, {"conceptId": "C182840", "definition": "Kurtzke Functional System Scores standardized character result for KFSS105-Moderate hesitancy, urgency, retention of bowel or bladder, or rare urinary incontinences.", "preferredTerm": "Kurtzke Functional System Scores KFSS105 Standardized Character Result 2", "submissionValue": "2", "synonyms": ["KFSS105-2"]}, {"conceptId": "C182841", "definition": "Kurtzke Functional System Scores standardized character result for KFSS105-Frequent urinary incontinence.", "preferredTerm": "Kurtzke Functional System Scores KFSS105 Standardized Character Result 3", "submissionValue": "3", "synonyms": ["KFSS105-3"]}, {"conceptId": "C182842", "definition": "Kurtzke Functional System Scores standardized character result for KFSS105-In need of almost constant catheterization.", "preferredTerm": "Kurtzke Functional System Scores KFSS105 Standardized Character Result 4", "submissionValue": "4", "synonyms": ["KFSS105-4"]}, {"conceptId": "C182843", "definition": "Kurtzke Functional System Scores standardized character result for KFSS105-Loss of bladder function.", "preferredTerm": "Kurtzke Functional System Scores KFSS105 Standardized Character Result 5", "submissionValue": "5", "synonyms": ["KFSS105-5"]}, {"conceptId": "C182844", "definition": "Kurtzke Functional System Scores standardized character result for KFSS105-Loss of bowel and bladder function.", "preferredTerm": "Kurtzke Functional System Scores KFSS105 Standardized Character Result 6", "submissionValue": "6", "synonyms": ["KFSS105-6"]}, {"conceptId": "C182845", "definition": "Kurtzke Functional System Scores standardized character result for KFSS105-Unknown.", "preferredTerm": "Kurtzke Functional System Scores KFSS105 Standardized Character Result Unknown", "submissionValue": "Unknown", "synonyms": ["KFSS105-Unknown"]}]}