{"_links": {"parentPackage": {"href": "/mdr/ct/packages/sdtmct-2022-09-30", "title": "SDTM Controlled Terminology Package 51 Effective 2022-09-30", "type": "Terminology"}, "priorVersion": {"href": "/mdr/ct/packages/sdtmct-2022-06-24/codelists/C182532", "title": "CDISC Clinical Classification Acute Physiology and Chronic Health Evaluation II APCH109 Standardized Character Response Terminology", "type": "Code List"}, "rootItem": {"href": "/mdr/root/ct/sdtmct/codelists/C182532", "title": "Version-agnostic anchor resource for codelist C182532", "type": "Root Value Domain"}, "self": {"href": "/mdr/ct/packages/sdtmct-2022-09-30/codelists/C182532", "title": "CDISC Clinical Classification Acute Physiology and Chronic Health Evaluation II APCH109 Standardized Character Response Terminology", "type": "Code List"}}, "conceptId": "C182532", "definition": "Acute Physiology and Chronic Health Evaluation II standardized character result for APCH109 test and test code.", "extensible": "false", "name": "Acute Physiology and Chronic Health Evaluation II Clinical Classification STRESC for APCH109 TN/TC", "preferredTerm": "CDISC Clinical Classification Acute Physiology and Chronic Health Evaluation II APCH109 Standardized Character Response Terminology", "submissionValue": "APCH109STR", "synonyms": ["Acute Physiology and Chronic Health Evaluation II Clinical Classification STRESC for APCH109 TN/TC"], "terms": [{"conceptId": "C183006", "definition": "Acute Physiology and Chronic Health Evaluation II standardized character result for APCH109-0.6-1.4.", "preferredTerm": "Acute Physiology and Chronic Health Evaluation II APCH109 Standardized Character Result 0", "submissionValue": "0", "synonyms": ["APCH109-0"]}, {"conceptId": "C183005", "definition": "Acute Physiology and Chronic Health Evaluation II standardized character result for APCH109-1.5-1.9; Less than 0.6.", "preferredTerm": "Acute Physiology and Chronic Health Evaluation II APCH109 Standardized Character Result 2", "submissionValue": "2", "synonyms": ["APCH109-2"]}, {"conceptId": "C183004", "definition": "Acute Physiology and Chronic Health Evaluation II standardized character result for APCH109-2-3.4.", "preferredTerm": "Acute Physiology and Chronic Health Evaluation II APCH109 Standardized Character Result 3", "submissionValue": "3", "synonyms": ["APCH109-3"]}, {"conceptId": "C183003", "definition": "Acute Physiology and Chronic Health Evaluation II standardized character result for APCH109-1.5-1.9 and acute renal failure; Greater than or equal to 3.5.", "preferredTerm": "Acute Physiology and Chronic Health Evaluation II APCH109 Standardized Character Result 4", "submissionValue": "4", "synonyms": ["APCH109-4"]}, {"conceptId": "C183002", "definition": "Acute Physiology and Chronic Health Evaluation II standardized character result for APCH109-2-3.4 and acute renal failure.", "preferredTerm": "Acute Physiology and Chronic Health Evaluation II APCH109 Standardized Character Result 6", "submissionValue": "6", "synonyms": ["APCH109-6"]}, {"conceptId": "C183001", "definition": "Acute Physiology and Chronic Health Evaluation II standardized character result for APCH109-Greater than or equal to 3.5 and acute renal failure.", "preferredTerm": "Acute Physiology and Chronic Health Evaluation II APCH109 Standardized Character Result 8", "submissionValue": "8", "synonyms": ["APCH109-8"]}]}