{"_links": {"parentPackage": {"href": "/mdr/ct/packages/sdtmct-2022-09-30", "title": "SDTM Controlled Terminology Package 51 Effective 2022-09-30", "type": "Terminology"}, "priorVersion": {"href": "/mdr/ct/packages/sdtmct-2022-06-24/codelists/C182484", "title": "CDISC Clinical Classification Acute Physiology and Chronic Health Evaluation II APCH101 Original Response Terminology", "type": "Code List"}, "rootItem": {"href": "/mdr/root/ct/sdtmct/codelists/C182484", "title": "Version-agnostic anchor resource for codelist C182484", "type": "Root Value Domain"}, "self": {"href": "/mdr/ct/packages/sdtmct-2022-09-30/codelists/C182484", "title": "CDISC Clinical Classification Acute Physiology and Chronic Health Evaluation II APCH101 Original Response Terminology", "type": "Code List"}}, "conceptId": "C182484", "definition": "Acute Physiology and Chronic Health Evaluation II original result for APCH101 test and test code.", "extensible": "false", "name": "Acute Physiology and Chronic Health Evaluation II Clinical Classification ORRES for APCH101 TN/TC", "preferredTerm": "CDISC Clinical Classification Acute Physiology and Chronic Health Evaluation II APCH101 Original Response Terminology", "submissionValue": "APCH101OR", "synonyms": ["Acute Physiology and Chronic Health Evaluation II Clinical Classification ORRES for APCH101 TN/TC"], "terms": [{"conceptId": "C182888", "definition": "Acute Physiology and Chronic Health Evaluation II original result for APCH101-30-31.9.", "preferredTerm": "Acute Physiology and Chronic Health Evaluation II APCH101 Original Result - 30-31.9", "submissionValue": "30-31.9", "synonyms": ["APCH101-30-31.9"]}, {"conceptId": "C182887", "definition": "Acute Physiology and Chronic Health Evaluation II original result for APCH101-32-33.9.", "preferredTerm": "Acute Physiology and Chronic Health Evaluation II APCH101 Original Result - 32-33.9", "submissionValue": "32-33.9", "synonyms": ["APCH101-32-33.9"]}, {"conceptId": "C182886", "definition": "Acute Physiology and Chronic Health Evaluation II original result for APCH101-34-35.9.", "preferredTerm": "Acute Physiology and Chronic Health Evaluation II APCH101 Original Result - 34-35.9", "submissionValue": "34-35.9", "synonyms": ["APCH101-34-35.9"]}, {"conceptId": "C182885", "definition": "Acute Physiology and Chronic Health Evaluation II original result for APCH101-36-38.4.", "preferredTerm": "Acute Physiology and Chronic Health Evaluation II APCH101 Original Result - 36-38.4", "submissionValue": "36-38.4", "synonyms": ["APCH101-36-38.4"]}, {"conceptId": "C182884", "definition": "Acute Physiology and Chronic Health Evaluation II original result for APCH101-38.5-38.9.", "preferredTerm": "Acute Physiology and Chronic Health Evaluation II APCH101 Original Result - 38.5-38.9", "submissionValue": "38.5-38.9", "synonyms": ["APCH101-38.5-38.9"]}, {"conceptId": "C182883", "definition": "Acute Physiology and Chronic Health Evaluation II original result for APCH101-39-40.9.", "preferredTerm": "Acute Physiology and Chronic Health Evaluation II APCH101 Original Result - 39-40.9", "submissionValue": "39-40.9", "synonyms": ["APCH101-39-40.9"]}, {"conceptId": "C182889", "definition": "Acute Physiology and Chronic Health Evaluation II original result for APCH101-Less than or equal to 29.9.", "preferredTerm": "Acute Physiology and Chronic Health Evaluation II APCH101 Original Result - <=29.9", "submissionValue": "<=29.9", "synonyms": ["APCH101-<=29.9"]}, {"conceptId": "C182882", "definition": "Acute Physiology and Chronic Health Evaluation II original result for APCH101-Greater than or equal to 41.", "preferredTerm": "Acute Physiology and Chronic Health Evaluation II APCH101 Original Result - >=41", "submissionValue": ">=41", "synonyms": ["APCH101->=41"]}]}