{"_links": {"parentPackage": {"href": "/mdr/ct/packages/sdtmct-2022-09-30", "title": "SDTM Controlled Terminology Package 51 Effective 2022-09-30", "type": "Terminology"}, "priorVersion": {"href": "/mdr/ct/packages/sdtmct-2022-06-24/codelists/C182468", "title": "CDISC Clinical Classification Hamilton Anxiety Rating Scale HAMA101 Through HAMA114 Original Response Terminology", "type": "Code List"}, "rootItem": {"href": "/mdr/root/ct/sdtmct/codelists/C182468", "title": "Version-agnostic anchor resource for codelist C182468", "type": "Root Value Domain"}, "self": {"href": "/mdr/ct/packages/sdtmct-2022-09-30/codelists/C182468", "title": "CDISC Clinical Classification Hamilton Anxiety Rating Scale HAMA101 Through HAMA114 Original Response Terminology", "type": "Code List"}}, "conceptId": "C182468", "definition": "Hamilton Anxiety Rating Scale original result for HAMA101 through HAMA114 test and test code.", "extensible": "false", "name": "Hamilton Anxiety Rating Scale Clinical Classification ORRES for HAMA101 Through HAMA114 TN/TC", "preferredTerm": "CDISC Clinical Classification Hamilton Anxiety Rating Scale HAMA101 Through HAMA114 Original Response Terminology", "submissionValue": "HAMA101T14OR", "synonyms": ["Hamilton Anxiety Rating Scale Clinical Classification ORRES for HAMA101 Through HAMA114 TN/TC"], "terms": [{"conceptId": "C182707", "definition": "Hamilton Anxiety Rating Scale original result for HAMA101 through HAMA114-Mild.", "preferredTerm": "Hamilton Anxiety Rating Scale HAMA101 Through HAMA114 Original Result - Mild", "submissionValue": "Mild", "synonyms": ["HAMA101 through HAMA114-Mild"]}, {"conceptId": "C182708", "definition": "Hamilton Anxiety Rating Scale original result for HAMA101 through HAMA114-Moderate.", "preferredTerm": "Hamilton Anxiety Rating Scale HAMA101 Through HAMA114 Original Result - Moderate", "submissionValue": "Moderate", "synonyms": ["HAMA101 through HAMA114-Moderate"]}, {"conceptId": "C182706", "definition": "Hamilton Anxiety Rating Scale original result for HAMA101 through HAMA114-Not present.", "preferredTerm": "Hamilton Anxiety Rating Scale HAMA101 Through HAMA114 Original Result - Not present", "submissionValue": "Not present", "synonyms": ["HAMA101 through HAMA114-Not present"]}, {"conceptId": "C182709", "definition": "Hamilton Anxiety Rating Scale original result for HAMA101 through HAMA114-Severe.", "preferredTerm": "Hamilton Anxiety Rating Scale HAMA101 Through HAMA114 Original Result - Severe", "submissionValue": "Severe", "synonyms": ["HAMA101 through HAMA114-Severe"]}, {"conceptId": "C182710", "definition": "Hamilton Anxiety Rating Scale original result for HAMA101 through HAMA114-Very severe.", "preferredTerm": "Hamilton Anxiety Rating Scale HAMA101 Through HAMA114 Original Result - Very severe", "submissionValue": "Very severe", "synonyms": ["HAMA101 through HAMA114-Very severe"]}]}