{"_links": {"parentPackage": {"href": "/mdr/ct/packages/sdtmct-2022-09-30", "title": "SDTM Controlled Terminology Package 51 Effective 2022-09-30", "type": "Terminology"}, "priorVersion": {"href": "/mdr/ct/packages/sdtmct-2022-06-24/codelists/C182475", "title": "CDISC Clinical Classification Kurtzke Functional System Scores KFSS101 Original Response Terminology", "type": "Code List"}, "rootItem": {"href": "/mdr/root/ct/sdtmct/codelists/C182475", "title": "Version-agnostic anchor resource for codelist C182475", "type": "Root Value Domain"}, "self": {"href": "/mdr/ct/packages/sdtmct-2022-09-30/codelists/C182475", "title": "CDISC Clinical Classification Kurtzke Functional System Scores KFSS101 Original Response Terminology", "type": "Code List"}}, "conceptId": "C182475", "definition": "Kurtzke Functional System Scores original result for KFSS101 test and test code.", "extensible": "false", "name": "Kurtzke Functional System Scores Clinical Classification ORRES for KFSS101 TN/TC", "preferredTerm": "CDISC Clinical Classification Kurtzke Functional System Scores KFSS101 Original Response Terminology", "submissionValue": "KFSS101OR", "synonyms": ["Kurtzke Functional System Scores Clinical Classification ORRES for KFSS101 TN/TC"], "terms": [{"conceptId": "C182767", "definition": "Kurtzke Functional System Scores original result for KFSS101-Abnormal signs without disability.", "preferredTerm": "Kurtzke Functional System Scores KFSS101 Original Result - Abnormal signs without disability", "submissionValue": "Abnormal signs without disability", "synonyms": ["KFSS101-Abnormal signs without disability"]}, {"conceptId": "C182770", "definition": "Kurtzke Functional System Scores original result for KFSS101-Marked paraparesis or hemiparesis; moderate quadriparesis; or monoplegia.", "preferredTerm": "Kurtzke Functional System Scores KFSS101 Original Result - Marked paraparesis or hemiparesis; moderate quadriparesis; or monoplegia", "submissionValue": "Marked paraparesis or hemiparesis; moderate quadriparesis; or monoplegia", "synonyms": ["KFSS101-Marked paraparesis or hemiparesis", "moderate quadriparesis", "or monoplegia"]}, {"conceptId": "C182769", "definition": "Kurtzke Functional System Scores original result for KFSS101-Mild or moderate paraparesis or hemiparesis; severe monoparesis.", "preferredTerm": "Kurtzke Functional System Scores KFSS101 Original Result - Mild or moderate paraparesis or hemiparesis; severe monoparesis", "submissionValue": "Mild or moderate paraparesis or hemiparesis; severe monoparesis", "synonyms": ["KFSS101-Mild or moderate paraparesis or hemiparesis", "severe monoparesis"]}, {"conceptId": "C182768", "definition": "Kurtzke Functional System Scores original result for KFSS101-Minimal disability.", "preferredTerm": "Kurtzke Functional System Scores KFSS101 Original Result - Minimal disability", "submissionValue": "Minimal disability", "synonyms": ["KFSS101-Minimal disability"]}, {"conceptId": "C182766", "definition": "Kurtzke Functional System Scores original result for KFSS101-Normal.", "preferredTerm": "Kurtzke Functional System Scores KFSS101 Original Result - Normal", "submissionValue": "Normal", "synonyms": ["KFSS101-Normal"]}, {"conceptId": "C182771", "definition": "Kurtzke Functional System Scores original result for KFSS101-Paraplegia, hemiplegia, or marked quadriparesis.", "preferredTerm": "Kurtzke Functional System Scores KFSS101 Original Result - Paraplegia, hemiplegia, or marked quadriparesis", "submissionValue": "Paraplegia, hemiplegia, or marked quadriparesis", "synonyms": ["KFSS101-Paraplegia, hemiplegia, or marked quadriparesis"]}, {"conceptId": "C182772", "definition": "Kurtzke Functional System Scores original result for KFSS101-Quadriplegia.", "preferredTerm": "Kurtzke Functional System Scores KFSS101 Original Result - Quadriplegia", "submissionValue": "Quadriplegia", "synonyms": ["KFSS101-Quadriplegia"]}, {"conceptId": "C182773", "definition": "Kurtzke Functional System Scores original result for KFSS101-Unknown.", "preferredTerm": "Kurtzke Functional System Scores KFSS101 Original Result - Unknown", "submissionValue": "Unknown", "synonyms": ["KFSS101-Unknown"]}]}