{"_links": {"parentPackage": {"href": "/mdr/ct/packages/sdtmct-2022-09-30", "title": "SDTM Controlled Terminology Package 51 Effective 2022-09-30", "type": "Terminology"}, "priorVersion": {"href": "/mdr/ct/packages/sdtmct-2022-06-24/codelists/C182502", "title": "CDISC Clinical Classification Abnormal Involuntary Movement Scale AIMS0101 Through AIMS0107 Standardized Character Response Terminology", "type": "Code List"}, "rootItem": {"href": "/mdr/root/ct/sdtmct/codelists/C182502", "title": "Version-agnostic anchor resource for codelist C182502", "type": "Root Value Domain"}, "self": {"href": "/mdr/ct/packages/sdtmct-2022-09-30/codelists/C182502", "title": "CDISC Clinical Classification Abnormal Involuntary Movement Scale AIMS0101 Through AIMS0107 Standardized Character Response Terminology", "type": "Code List"}}, "conceptId": "C182502", "definition": "Abnormal Involuntary Movement Scale standardized character result for AIMS0101 through AIMS0107 test and test code.", "extensible": "false", "name": "Abnormal Involuntary Movement Scale Clinical Classification STRESC for AIMS0101 Through AIMS0107 TN/TC", "preferredTerm": "CDISC Clinical Classification Abnormal Involuntary Movement Scale AIMS0101 Through AIMS0107 Standardized Character Response Terminology", "submissionValue": "AIMS0101T07STR", "synonyms": ["Abnormal Involuntary Movement Scale Clinical Classification STRESC for AIMS0101 Through AIMS0107 TN/TC"], "terms": [{"conceptId": "C182677", "definition": "Abnormal Involuntary Movement Scale standardized character result for AIMS0101 through AIMS0107-None.", "preferredTerm": "Abnormal Involuntary Movement Scale AIMS0101 Through AIMS0107 Standardized Character Result 0", "submissionValue": "0", "synonyms": ["AIMS0101 through AIMS0107-0"]}, {"conceptId": "C182678", "definition": "Abnormal Involuntary Movement Scale standardized character result for AIMS0101 through AIMS0107-Minimal, may be extreme normal .", "preferredTerm": "Abnormal Involuntary Movement Scale AIMS0101 Through AIMS0107 Standardized Character Result 1", "submissionValue": "1", "synonyms": ["AIMS0101 through AIMS0107-1"]}, {"conceptId": "C182679", "definition": "Abnormal Involuntary Movement Scale standardized character result for AIMS0101 through AIMS0107-Mild.", "preferredTerm": "Abnormal Involuntary Movement Scale AIMS0101 Through AIMS0107 Standardized Character Result 2", "submissionValue": "2", "synonyms": ["AIMS0101 through AIMS0107-2"]}, {"conceptId": "C182680", "definition": "Abnormal Involuntary Movement Scale standardized character result for AIMS0101 through AIMS0107-Moderate.", "preferredTerm": "Abnormal Involuntary Movement Scale AIMS0101 Through AIMS0107 Standardized Character Result 3", "submissionValue": "3", "synonyms": ["AIMS0101 through AIMS0107-3"]}, {"conceptId": "C182681", "definition": "Abnormal Involuntary Movement Scale standardized character result for AIMS0101 through AIMS0107-Severe.", "preferredTerm": "Abnormal Involuntary Movement Scale AIMS0101 Through AIMS0107 Standardized Character Result 4", "submissionValue": "4", "synonyms": ["AIMS0101 through AIMS0107-4"]}]}