{"_links": {"parentPackage": {"href": "/mdr/ct/packages/sdtmct-2022-09-30", "title": "SDTM Controlled Terminology Package 51 Effective 2022-09-30", "type": "Terminology"}, "priorVersion": {"href": "/mdr/ct/packages/sdtmct-2022-06-24/codelists/C182485", "title": "CDISC Clinical Classification Acute Physiology and Chronic Health Evaluation II APCH102 Original Response Terminology", "type": "Code List"}, "rootItem": {"href": "/mdr/root/ct/sdtmct/codelists/C182485", "title": "Version-agnostic anchor resource for codelist C182485", "type": "Root Value Domain"}, "self": {"href": "/mdr/ct/packages/sdtmct-2022-09-30/codelists/C182485", "title": "CDISC Clinical Classification Acute Physiology and Chronic Health Evaluation II APCH102 Original Response Terminology", "type": "Code List"}}, "conceptId": "C182485", "definition": "Acute Physiology and Chronic Health Evaluation II original result for APCH102 test and test code.", "extensible": "false", "name": "Acute Physiology and Chronic Health Evaluation II Clinical Classification ORRES for APCH102 TN/TC", "preferredTerm": "CDISC Clinical Classification Acute Physiology and Chronic Health Evaluation II APCH102 Original Response Terminology", "submissionValue": "APCH102OR", "synonyms": ["Acute Physiology and Chronic Health Evaluation II Clinical Classification ORRES for APCH102 TN/TC"], "terms": [{"conceptId": "C182897", "definition": "Acute Physiology and Chronic Health Evaluation II original result for APCH102-110-129.", "preferredTerm": "Acute Physiology and Chronic Health Evaluation II APCH102 Original Result - 110-129", "submissionValue": "110-129", "synonyms": ["APCH102-110-129"]}, {"conceptId": "C182896", "definition": "Acute Physiology and Chronic Health Evaluation II original result for APCH102-130-159.", "preferredTerm": "Acute Physiology and Chronic Health Evaluation II APCH102 Original Result - 130-159", "submissionValue": "130-159", "synonyms": ["APCH102-130-159"]}, {"conceptId": "C182899", "definition": "Acute Physiology and Chronic Health Evaluation II original result for APCH102-50-69.", "preferredTerm": "Acute Physiology and Chronic Health Evaluation II APCH102 Original Result - 50-69", "submissionValue": "50-69", "synonyms": ["APCH102-50-69"]}, {"conceptId": "C182898", "definition": "Acute Physiology and Chronic Health Evaluation II original result for APCH102-70-109.", "preferredTerm": "Acute Physiology and Chronic Health Evaluation II APCH102 Original Result - 70-109", "submissionValue": "70-109", "synonyms": ["APCH102-70-109"]}, {"conceptId": "C182900", "definition": "Acute Physiology and Chronic Health Evaluation II original result for APCH102-Less than or equal to 49.", "preferredTerm": "Acute Physiology and Chronic Health Evaluation II APCH102 Original Result - <=49", "submissionValue": "<=49", "synonyms": ["APCH102-<=49"]}, {"conceptId": "C182895", "definition": "Acute Physiology and Chronic Health Evaluation II original result for APCH102-Greater than or equal to 160.", "preferredTerm": "Acute Physiology and Chronic Health Evaluation II APCH102 Original Result - >=160", "submissionValue": ">=160", "synonyms": ["APCH102->=160"]}]}