{"_links": {"parentPackage": {"href": "/mdr/ct/packages/sdtmct-2022-09-30", "title": "SDTM Controlled Terminology Package 51 Effective 2022-09-30", "type": "Terminology"}, "priorVersion": {"href": "/mdr/ct/packages/sdtmct-2022-06-24/codelists/C182527", "title": "CDISC Clinical Classification Acute Physiology and Chronic Health Evaluation II APCH105B Standardized Character Response Terminology", "type": "Code List"}, "rootItem": {"href": "/mdr/root/ct/sdtmct/codelists/C182527", "title": "Version-agnostic anchor resource for codelist C182527", "type": "Root Value Domain"}, "self": {"href": "/mdr/ct/packages/sdtmct-2022-09-30/codelists/C182527", "title": "CDISC Clinical Classification Acute Physiology and Chronic Health Evaluation II APCH105B Standardized Character Response Terminology", "type": "Code List"}}, "conceptId": "C182527", "definition": "Acute Physiology and Chronic Health Evaluation II standardized character result for APCH105B test and test code.", "extensible": "false", "name": "Acute Physiology and Chronic Health Evaluation II Clinical Classification STRESC for APCH105B TN/TC", "preferredTerm": "CDISC Clinical Classification Acute Physiology and Chronic Health Evaluation II APCH105B Standardized Character Response Terminology", "submissionValue": "APCH105BSTR", "synonyms": ["Acute Physiology and Chronic Health Evaluation II Clinical Classification STRESC for APCH105B TN/TC"], "terms": [{"conceptId": "C182940", "definition": "Acute Physiology and Chronic Health Evaluation II standardized character result for APCH105B-Greater than 70.", "preferredTerm": "Acute Physiology and Chronic Health Evaluation II APCH105B Standardized Character Result 0", "submissionValue": "0", "synonyms": ["APCH105B-0"]}, {"conceptId": "C182941", "definition": "Acute Physiology and Chronic Health Evaluation II standardized character result for APCH105B-61-70.", "preferredTerm": "Acute Physiology and Chronic Health Evaluation II APCH105B Standardized Character Result 1", "submissionValue": "1", "synonyms": ["APCH105B-1"]}, {"conceptId": "C182942", "definition": "Acute Physiology and Chronic Health Evaluation II standardized character result for APCH105B-55-60.", "preferredTerm": "Acute Physiology and Chronic Health Evaluation II APCH105B Standardized Character Result 3", "submissionValue": "3", "synonyms": ["APCH105B-3"]}, {"conceptId": "C182943", "definition": "Acute Physiology and Chronic Health Evaluation II standardized character result for APCH105B-Less than 55.", "preferredTerm": "Acute Physiology and Chronic Health Evaluation II APCH105B Standardized Character Result 4", "submissionValue": "4", "synonyms": ["APCH105B-4"]}]}