{"_links": {"parentPackage": {"href": "/mdr/ct/packages/sdtmct-2022-09-30", "title": "SDTM Controlled Terminology Package 51 Effective 2022-09-30", "type": "Terminology"}, "priorVersion": {"href": "/mdr/ct/packages/sdtmct-2022-06-24/codelists/C182533", "title": "CDISC Clinical Classification Acute Physiology and Chronic Health Evaluation II APCH110 Standardized Character Response Terminology", "type": "Code List"}, "rootItem": {"href": "/mdr/root/ct/sdtmct/codelists/C182533", "title": "Version-agnostic anchor resource for codelist C182533", "type": "Root Value Domain"}, "self": {"href": "/mdr/ct/packages/sdtmct-2022-09-30/codelists/C182533", "title": "CDISC Clinical Classification Acute Physiology and Chronic Health Evaluation II APCH110 Standardized Character Response Terminology", "type": "Code List"}}, "conceptId": "C182533", "definition": "Acute Physiology and Chronic Health Evaluation II standardized character result for APCH110 test and test code.", "extensible": "false", "name": "Acute Physiology and Chronic Health Evaluation II Clinical Classification STRESC for APCH110 TN/TC", "preferredTerm": "CDISC Clinical Classification Acute Physiology and Chronic Health Evaluation II APCH110 Standardized Character Response Terminology", "submissionValue": "APCH110STR", "synonyms": ["Acute Physiology and Chronic Health Evaluation II Clinical Classification STRESC for APCH110 TN/TC"], "terms": [{"conceptId": "C183016", "definition": "Acute Physiology and Chronic Health Evaluation II standardized character result for APCH110-30-45.9.", "preferredTerm": "Acute Physiology and Chronic Health Evaluation II APCH110 Standardized Character Result 0", "submissionValue": "0", "synonyms": ["APCH110-0"]}, {"conceptId": "C183015", "definition": "Acute Physiology and Chronic Health Evaluation II standardized character result for APCH110-46-49.9.", "preferredTerm": "Acute Physiology and Chronic Health Evaluation II APCH110 Standardized Character Result 1", "submissionValue": "1", "synonyms": ["APCH110-1"]}, {"conceptId": "C183014", "definition": "Acute Physiology and Chronic Health Evaluation II standardized character result for APCH110-50-59.9; 20-29.9.", "preferredTerm": "Acute Physiology and Chronic Health Evaluation II APCH110 Standardized Character Result 2", "submissionValue": "2", "synonyms": ["APCH110-2"]}, {"conceptId": "C183013", "definition": "Acute Physiology and Chronic Health Evaluation II standardized character result for APCH110-Greater than or equal to 60; Less than 20.", "preferredTerm": "Acute Physiology and Chronic Health Evaluation II APCH110 Standardized Character Result 4", "submissionValue": "4", "synonyms": ["APCH110-4"]}]}