{"_links": {"parentPackage": {"href": "/mdr/ct/packages/sdtmct-2022-09-30", "title": "SDTM Controlled Terminology Package 51 Effective 2022-09-30", "type": "Terminology"}, "priorVersion": {"href": "/mdr/ct/packages/sdtmct-2022-06-24/codelists/C182491", "title": "CDISC Clinical Classification Acute Physiology and Chronic Health Evaluation II APCH106B Original Response Terminology", "type": "Code List"}, "rootItem": {"href": "/mdr/root/ct/sdtmct/codelists/C182491", "title": "Version-agnostic anchor resource for codelist C182491", "type": "Root Value Domain"}, "self": {"href": "/mdr/ct/packages/sdtmct-2022-09-30/codelists/C182491", "title": "CDISC Clinical Classification Acute Physiology and Chronic Health Evaluation II APCH106B Original Response Terminology", "type": "Code List"}}, "conceptId": "C182491", "definition": "Acute Physiology and Chronic Health Evaluation II original result for APCH106B test and test code.", "extensible": "false", "name": "Acute Physiology and Chronic Health Evaluation II Clinical Classification ORRES for APCH106B TN/TC", "preferredTerm": "CDISC Clinical Classification Acute Physiology and Chronic Health Evaluation II APCH106B Original Response Terminology", "submissionValue": "APCH106BOR", "synonyms": ["Acute Physiology and Chronic Health Evaluation II Clinical Classification ORRES for APCH106B TN/TC"], "terms": [{"conceptId": "C182961", "definition": "Acute Physiology and Chronic Health Evaluation II original result for APCH106B-15-17.9.", "preferredTerm": "Acute Physiology and Chronic Health Evaluation II APCH106B Original Result - 15-17.9", "submissionValue": "15-17.9", "synonyms": ["APCH106B-15-17.9"]}, {"conceptId": "C182960", "definition": "Acute Physiology and Chronic Health Evaluation II original result for APCH106B-18-21.9.", "preferredTerm": "Acute Physiology and Chronic Health Evaluation II APCH106B Original Result - 18-21.9", "submissionValue": "18-21.9", "synonyms": ["APCH106B-18-21.9"]}, {"conceptId": "C182959", "definition": "Acute Physiology and Chronic Health Evaluation II original result for APCH106B-22-31.9.", "preferredTerm": "Acute Physiology and Chronic Health Evaluation II APCH106B Original Result - 22-31.9", "submissionValue": "22-31.9", "synonyms": ["APCH106B-22-31.9"]}, {"conceptId": "C182958", "definition": "Acute Physiology and Chronic Health Evaluation II original result for APCH106B-32-40.9.", "preferredTerm": "Acute Physiology and Chronic Health Evaluation II APCH106B Original Result - 32-40.9", "submissionValue": "32-40.9", "synonyms": ["APCH106B-32-40.9"]}, {"conceptId": "C182957", "definition": "Acute Physiology and Chronic Health Evaluation II original result for APCH106B-41-51.9.", "preferredTerm": "Acute Physiology and Chronic Health Evaluation II APCH106B Original Result - 41-51.9", "submissionValue": "41-51.9", "synonyms": ["APCH106B-41-51.9"]}, {"conceptId": "C182962", "definition": "Acute Physiology and Chronic Health Evaluation II original result for APCH106B-Less than 15.", "preferredTerm": "Acute Physiology and Chronic Health Evaluation II APCH106B Original Result - <15", "submissionValue": "<15", "synonyms": ["APCH106B-<15"]}, {"conceptId": "C182956", "definition": "Acute Physiology and Chronic Health Evaluation II original result for APCH106B-Greater than or equal to 52.", "preferredTerm": "Acute Physiology and Chronic Health Evaluation II APCH106B Original Result - >=52", "submissionValue": ">=52", "synonyms": ["APCH106B->=52"]}]}