{"_links": {"parentPackage": {"href": "/mdr/ct/packages/sdtmct-2022-09-30", "title": "SDTM Controlled Terminology Package 51 Effective 2022-09-30", "type": "Terminology"}, "priorVersion": {"href": "/mdr/ct/packages/sdtmct-2022-06-24/codelists/C182490", "title": "CDISC Clinical Classification Acute Physiology and Chronic Health Evaluation II APCH106A Original Response Terminology", "type": "Code List"}, "rootItem": {"href": "/mdr/root/ct/sdtmct/codelists/C182490", "title": "Version-agnostic anchor resource for codelist C182490", "type": "Root Value Domain"}, "self": {"href": "/mdr/ct/packages/sdtmct-2022-09-30/codelists/C182490", "title": "CDISC Clinical Classification Acute Physiology and Chronic Health Evaluation II APCH106A Original Response Terminology", "type": "Code List"}}, "conceptId": "C182490", "definition": "Acute Physiology and Chronic Health Evaluation II original result for APCH106A test and test code.", "extensible": "false", "name": "Acute Physiology and Chronic Health Evaluation II Clinical Classification ORRES for APCH106A TN/TC", "preferredTerm": "CDISC Clinical Classification Acute Physiology and Chronic Health Evaluation II APCH106A Original Response Terminology", "submissionValue": "APCH106AOR", "synonyms": ["Acute Physiology and Chronic Health Evaluation II Clinical Classification ORRES for APCH106A TN/TC"], "terms": [{"conceptId": "C182949", "definition": "Acute Physiology and Chronic Health Evaluation II original result for APCH106A-7.15-7.24.", "preferredTerm": "Acute Physiology and Chronic Health Evaluation II APCH106A Original Result - 7.15-7.24", "submissionValue": "7.15-7.24", "synonyms": ["APCH106A-7.15-7.24"]}, {"conceptId": "C182948", "definition": "Acute Physiology and Chronic Health Evaluation II original result for APCH106A-7.25-7.32.", "preferredTerm": "Acute Physiology and Chronic Health Evaluation II APCH106A Original Result - 7.25-7.32", "submissionValue": "7.25-7.32", "synonyms": ["APCH106A-7.25-7.32"]}, {"conceptId": "C182947", "definition": "Acute Physiology and Chronic Health Evaluation II original result for APCH106A-7.33-7.49.", "preferredTerm": "Acute Physiology and Chronic Health Evaluation II APCH106A Original Result - 7.33-7.49", "submissionValue": "7.33-7.49", "synonyms": ["APCH106A-7.33-7.49"]}, {"conceptId": "C182946", "definition": "Acute Physiology and Chronic Health Evaluation II original result for APCH106A-7.5-7.59.", "preferredTerm": "Acute Physiology and Chronic Health Evaluation II APCH106A Original Result - 7.5-7.59", "submissionValue": "7.5-7.59", "synonyms": ["APCH106A-7.5-7.59"]}, {"conceptId": "C182945", "definition": "Acute Physiology and Chronic Health Evaluation II original result for APCH106A-7.6-7.69.", "preferredTerm": "Acute Physiology and Chronic Health Evaluation II APCH106A Original Result - 7.6-7.69", "submissionValue": "7.6-7.69", "synonyms": ["APCH106A-7.6-7.69"]}, {"conceptId": "C182950", "definition": "Acute Physiology and Chronic Health Evaluation II original result for APCH106A-Less than 7.15.", "preferredTerm": "Acute Physiology and Chronic Health Evaluation II APCH106A Original Result - <7.15", "submissionValue": "<7.15", "synonyms": ["APCH106A-<7.15"]}, {"conceptId": "C182944", "definition": "Acute Physiology and Chronic Health Evaluation II original result for APCH106A-Greater than or equal to 7.7.", "preferredTerm": "Acute Physiology and Chronic Health Evaluation II APCH106A Original Result - >=7.7", "submissionValue": ">=7.7", "synonyms": ["APCH106A->=7.7"]}]}