{"_links": {"parentPackage": {"href": "/mdr/ct/packages/sdtmct-2022-09-30", "title": "SDTM Controlled Terminology Package 51 Effective 2022-09-30", "type": "Terminology"}, "priorVersion": {"href": "/mdr/ct/packages/sdtmct-2022-06-24/codelists/C182516", "title": "CDISC Clinical Classification Kurtzke Functional System Scores KFSS103 Standardized Character Response Terminology", "type": "Code List"}, "rootItem": {"href": "/mdr/root/ct/sdtmct/codelists/C182516", "title": "Version-agnostic anchor resource for codelist C182516", "type": "Root Value Domain"}, "self": {"href": "/mdr/ct/packages/sdtmct-2022-09-30/codelists/C182516", "title": "CDISC Clinical Classification Kurtzke Functional System Scores KFSS103 Standardized Character Response Terminology", "type": "Code List"}}, "conceptId": "C182516", "definition": "Kurtzke Functional System Scores standardized character result for KFSS103 test and test code.", "extensible": "false", "name": "Kurtzke Functional System Scores Clinical Classification STRESC for KFSS103 TN/TC", "preferredTerm": "CDISC Clinical Classification Kurtzke Functional System Scores KFSS103 Standardized Character Response Terminology", "submissionValue": "KFSS103STR", "synonyms": ["Kurtzke Functional System Scores Clinical Classification STRESC for KFSS103 TN/TC"], "terms": [{"conceptId": "C182807", "definition": "Kurtzke Functional System Scores standardized character result for KFSS103-Normal.", "preferredTerm": "Kurtzke Functional System Scores KFSS103 Standardized Character Result 0", "submissionValue": "0", "synonyms": ["KFSS103-0"]}, {"conceptId": "C182808", "definition": "Kurtzke Functional System Scores standardized character result for KFSS103-Signs only.", "preferredTerm": "Kurtzke Functional System Scores KFSS103 Standardized Character Result 1", "submissionValue": "1", "synonyms": ["KFSS103-1"]}, {"conceptId": "C182809", "definition": "Kurtzke Functional System Scores standardized character result for KFSS103-Moderate nystagmus or other mild disability.", "preferredTerm": "Kurtzke Functional System Scores KFSS103 Standardized Character Result 2", "submissionValue": "2", "synonyms": ["KFSS103-2"]}, {"conceptId": "C182810", "definition": "Kurtzke Functional System Scores standardized character result for KFSS103-Severe nystagmus, marked extraocular weakness, or moderate disability of other cranial nerves.", "preferredTerm": "Kurtzke Functional System Scores KFSS103 Standardized Character Result 3", "submissionValue": "3", "synonyms": ["KFSS103-3"]}, {"conceptId": "C182811", "definition": "Kurtzke Functional System Scores standardized character result for KFSS103-Marked dysarthria or other marked disability.", "preferredTerm": "Kurtzke Functional System Scores KFSS103 Standardized Character Result 4", "submissionValue": "4", "synonyms": ["KFSS103-4"]}, {"conceptId": "C182812", "definition": "Kurtzke Functional System Scores standardized character result for KFSS103-Inability to swallow or speak.", "preferredTerm": "Kurtzke Functional System Scores KFSS103 Standardized Character Result 5", "submissionValue": "5", "synonyms": ["KFSS103-5"]}, {"conceptId": "C182813", "definition": "Kurtzke Functional System Scores standardized character result for KFSS103-Unknown.", "preferredTerm": "Kurtzke Functional System Scores KFSS103 Standardized Character Result Unknown", "submissionValue": "Unknown", "synonyms": ["KFSS103-Unknown"]}]}