{"_links": {"parentPackage": {"href": "/mdr/ct/packages/sdtmct-2022-09-30", "title": "SDTM Controlled Terminology Package 51 Effective 2022-09-30", "type": "Terminology"}, "priorVersion": {"href": "/mdr/ct/packages/sdtmct-2022-06-24/codelists/C182496", "title": "CDISC Clinical Classification Acute Physiology and Chronic Health Evaluation II APCH111 Original Response Terminology", "type": "Code List"}, "rootItem": {"href": "/mdr/root/ct/sdtmct/codelists/C182496", "title": "Version-agnostic anchor resource for codelist C182496", "type": "Root Value Domain"}, "self": {"href": "/mdr/ct/packages/sdtmct-2022-09-30/codelists/C182496", "title": "CDISC Clinical Classification Acute Physiology and Chronic Health Evaluation II APCH111 Original Response Terminology", "type": "Code List"}}, "conceptId": "C182496", "definition": "Acute Physiology and Chronic Health Evaluation II original result for APCH111 test and test code.", "extensible": "false", "name": "Acute Physiology and Chronic Health Evaluation II Clinical Classification ORRES for APCH111 TN/TC", "preferredTerm": "CDISC Clinical Classification Acute Physiology and Chronic Health Evaluation II APCH111 Original Response Terminology", "submissionValue": "APCH111OR", "synonyms": ["Acute Physiology and Chronic Health Evaluation II Clinical Classification ORRES for APCH111 TN/TC"], "terms": [{"conceptId": "C183021", "definition": "Acute Physiology and Chronic Health Evaluation II original result for APCH111-1-2.9.", "preferredTerm": "Acute Physiology and Chronic Health Evaluation II APCH111 Original Result - 1-2.9", "submissionValue": "1-2.9", "synonyms": ["APCH111-1-2.9"]}, {"conceptId": "C183019", "definition": "Acute Physiology and Chronic Health Evaluation II original result for APCH111-15-19.9.", "preferredTerm": "Acute Physiology and Chronic Health Evaluation II APCH111 Original Result - 15-19.9", "submissionValue": "15-19.9", "synonyms": ["APCH111-15-19.9"]}, {"conceptId": "C183018", "definition": "Acute Physiology and Chronic Health Evaluation II original result for APCH111-20-39.9.", "preferredTerm": "Acute Physiology and Chronic Health Evaluation II APCH111 Original Result - 20-39.9", "submissionValue": "20-39.9", "synonyms": ["APCH111-20-39.9"]}, {"conceptId": "C183020", "definition": "Acute Physiology and Chronic Health Evaluation II original result for APCH111-3-14.9.", "preferredTerm": "Acute Physiology and Chronic Health Evaluation II APCH111 Original Result - 3-14.9", "submissionValue": "3-14.9", "synonyms": ["APCH111-3-14.9"]}, {"conceptId": "C183022", "definition": "Acute Physiology and Chronic Health Evaluation II original result for APCH111-Less than 1.", "preferredTerm": "Acute Physiology and Chronic Health Evaluation II APCH111 Original Result - <1", "submissionValue": "<1", "synonyms": ["APCH111-<1"]}, {"conceptId": "C183017", "definition": "Acute Physiology and Chronic Health Evaluation II original result for APCH111-Greater than or equal to 40.", "preferredTerm": "Acute Physiology and Chronic Health Evaluation II APCH111 Original Result - >=40", "submissionValue": ">=40", "synonyms": ["APCH111->=40"]}]}