{"_links": {"parentPackage": {"href": "/mdr/ct/packages/sdtmct-2022-09-30", "title": "SDTM Controlled Terminology Package 51 Effective 2022-09-30", "type": "Terminology"}, "priorVersion": {"href": "/mdr/ct/packages/sdtmct-2022-06-24/codelists/C182507", "title": "CDISC Clinical Classification Karnofsky Performance Status Scale KPSS0101 Standardized Character Response Terminology", "type": "Code List"}, "rootItem": {"href": "/mdr/root/ct/sdtmct/codelists/C182507", "title": "Version-agnostic anchor resource for codelist C182507", "type": "Root Value Domain"}, "self": {"href": "/mdr/ct/packages/sdtmct-2022-09-30/codelists/C182507", "title": "CDISC Clinical Classification Karnofsky Performance Status Scale KPSS0101 Standardized Character Response Terminology", "type": "Code List"}}, "conceptId": "C182507", "definition": "Karnofsky Performance Status Scale standardized character result for KPSS0101 test and test code.", "extensible": "false", "name": "Karnofsky Performance Status Scale Clinical Classification STRESC for KPSS0101 TN/TC", "preferredTerm": "CDISC Clinical Classification Karnofsky Performance Status Scale KPSS0101 Standardized Character Response Terminology", "submissionValue": "KPSS0101STR", "synonyms": ["Karnofsky Performance Status Scale Clinical Classification STRESC for KPSS0101 TN/TC"], "terms": [{"conceptId": "C182737", "definition": "Karnofsky Performance Status Scale standardized character result for KPSS0101-Dead.", "preferredTerm": "Karnofsky Performance Status Scale KPSS0101 Standardized Character Result 0", "submissionValue": "0", "synonyms": ["KPSS0101-0"]}, {"conceptId": "C182736", "definition": "Karnofsky Performance Status Scale standardized character result for KPSS0101-Moribund; fatal processes progressing rapidly.", "preferredTerm": "Karnofsky Performance Status Scale KPSS0101 Standardized Character Result 10", "submissionValue": "10", "synonyms": ["KPSS0101-10"]}, {"conceptId": "C182727", "definition": "Karnofsky Performance Status Scale standardized character result for KPSS0101-Normal no complaints; no evidence of disease.", "preferredTerm": "Karnofsky Performance Status Scale KPSS0101 Standardized Character Result 100", "submissionValue": "100", "synonyms": ["KPSS0101-100"]}, {"conceptId": "C182735", "definition": "Karnofsky Performance Status Scale standardized character result for KPSS0101-Very sick; hospital admission necessary; active supportive treatment necessary.", "preferredTerm": "Karnofsky Performance Status Scale KPSS0101 Standardized Character Result 20", "submissionValue": "20", "synonyms": ["KPSS0101-20"]}, {"conceptId": "C182734", "definition": "Karnofsky Performance Status Scale standardized character result for KPSS0101-Severely disabled; hospital admission is indicated although death not imminent.", "preferredTerm": "Karnofsky Performance Status Scale KPSS0101 Standardized Character Result 30", "submissionValue": "30", "synonyms": ["KPSS0101-30"]}, {"conceptId": "C182733", "definition": "Karnofsky Performance Status Scale standardized character result for KPSS0101-Disabled; requires special care and assistance.", "preferredTerm": "Karnofsky Performance Status Scale KPSS0101 Standardized Character Result 40", "submissionValue": "40", "synonyms": ["KPSS0101-40"]}, {"conceptId": "C182732", "definition": "Karnofsky Performance Status Scale standardized character result for KPSS0101-Requires considerable assistance and frequent medical care.", "preferredTerm": "Karnofsky Performance Status Scale KPSS0101 Standardized Character Result 50", "submissionValue": "50", "synonyms": ["KPSS0101-50"]}, {"conceptId": "C182731", "definition": "Karnofsky Performance Status Scale standardized character result for KPSS0101-Requires occasional assistance, but is able to care for most of his personal needs.", "preferredTerm": "Karnofsky Performance Status Scale KPSS0101 Standardized Character Result 60", "submissionValue": "60", "synonyms": ["KPSS0101-60"]}, {"conceptId": "C182730", "definition": "Karnofsky Performance Status Scale standardized character result for KPSS0101-Cares for self; unable to carry on normal activity or to do active work.", "preferredTerm": "Karnofsky Performance Status Scale KPSS0101 Standardized Character Result 70", "submissionValue": "70", "synonyms": ["KPSS0101-70"]}, {"conceptId": "C182729", "definition": "Karnofsky Performance Status Scale standardized character result for KPSS0101-Normal activity with effort; some signs or symptoms of disease.", "preferredTerm": "Karnofsky Performance Status Scale KPSS0101 Standardized Character Result 80", "submissionValue": "80", "synonyms": ["KPSS0101-80"]}, {"conceptId": "C182728", "definition": "Karnofsky Performance Status Scale standardized character result for KPSS0101-Able to carry on normal activity; minor signs or symptoms of disease.", "preferredTerm": "Karnofsky Performance Status Scale KPSS0101 Standardized Character Result 90", "submissionValue": "90", "synonyms": ["KPSS0101-90"]}]}