{"_links": {"parentPackage": {"href": "/mdr/ct/packages/sdtmct-2022-09-30", "title": "SDTM Controlled Terminology Package 51 Effective 2022-09-30", "type": "Terminology"}, "priorVersion": {"href": "/mdr/ct/packages/sdtmct-2022-06-24/codelists/C183546", "title": "CDISC Questionnaire IPSS Test Name Terminology", "type": "Code List"}, "rootItem": {"href": "/mdr/root/ct/sdtmct/codelists/C183546", "title": "Version-agnostic anchor resource for codelist C183546", "type": "Root Value Domain"}, "self": {"href": "/mdr/ct/packages/sdtmct-2022-09-30/codelists/C183546", "title": "CDISC Questionnaire IPSS Test Name Terminology", "type": "Code List"}}, "conceptId": "C183546", "definition": "International Prostate Symptom Score test name.", "extensible": "false", "name": "International Prostate Symptom Score Questionnaire Test Name", "preferredTerm": "CDISC Questionnaire IPSS Test Name Terminology", "submissionValue": "IPS01TN", "synonyms": ["International Prostate Symptom Score Questionnaire Test Name"], "terms": [{"conceptId": "C183602", "definition": "International Prostate Symptom Score - During the last month or so, how often have you found it difficult to postpone urination?", "preferredTerm": "IPSS - Difficult to Postpone Urination", "submissionValue": "IPS01-Difficult to Postpone Urination", "synonyms": ["IPS01-Difficult to Postpone Urination"]}, {"conceptId": "C183603", "definition": "International Prostate Symptom Score - During the last month or so, how often have you had a weak urinary stream?", "preferredTerm": "IPSS - Had Weak Urinary Stream", "submissionValue": "IPS01-Had Weak Urinary Stream", "synonyms": ["IPS01-Had Weak Urinary Stream"]}, {"conceptId": "C183607", "definition": "International Prostate Symptom Score - If you were to spend the rest of your life with your prostate symptoms just as they are now, how would you feel about that?", "preferredTerm": "IPSS - Life With Symptoms Feel About It", "submissionValue": "IPS01-Life With Symptoms Feel About It", "synonyms": ["IPS01-Life With Symptoms Feel About It"]}, {"conceptId": "C183604", "definition": "International Prostate Symptom Score - During the last month or so, how often have you had to push or strain to begin urination?", "preferredTerm": "IPSS - Push or Strain to Begin Urination", "submissionValue": "IPS01-Push or Strain to Begin Urination", "synonyms": ["IPS01-Push or Strain to Begin Urination"]}, {"conceptId": "C183599", "definition": "International Prostate Symptom Score - During the last month or so, how often have you had a sensation of not emptying your bladder completely after you finished urinating?", "preferredTerm": "IPSS - Sensation of Not Emptying Bladder", "submissionValue": "IPS01-Sensation of Not Emptying Bladder", "synonyms": ["IPS01-Sensation of Not Emptying Bladder"]}, {"conceptId": "C183601", "definition": "International Prostate Symptom Score - During the last month or so, how often have you found you stopped and started again several times when you urinated?", "preferredTerm": "IPSS - Stop Start Several Times Urinated", "submissionValue": "IPS01-Stop Start Several Times Urinated", "synonyms": ["IPS01-Stop Start Several Times Urinated"]}, {"conceptId": "C183605", "definition": "International Prostate Symptom Score - During the last month, how many times did you most typically get up to urinate from the time you went to bed at night until the time you got up in the morning?", "preferredTerm": "IPSS - Times Get Up to Urinate at Night", "submissionValue": "IPS01-Times Get Up to Urinate at Night", "synonyms": ["IPS01-Times Get Up to Urinate at Night"]}, {"conceptId": "C183606", "definition": "International Prostate Symptom Score - AUA symptom total score.", "preferredTerm": "IPSS - Total Score", "submissionValue": "IPS01-Total Score", "synonyms": ["IPS01-Total Score"]}, {"conceptId": "C183600", "definition": "International Prostate Symptom Score - During the last month or so, how often have you had to urinate again less than 2 hours after you finished urinating?", "preferredTerm": "IPSS - Urinate Again Less Than 2 Hours", "submissionValue": "IPS01-Urinate Again Less Than 2 Hours", "synonyms": ["IPS01-Urinate Again Less Than 2 Hours"]}]}