{"_links": {"parentPackage": {"href": "/mdr/ct/packages/sdtmct-2022-09-30", "title": "SDTM Controlled Terminology Package 51 Effective 2022-09-30", "type": "Terminology"}, "priorVersion": {"href": "/mdr/ct/packages/sdtmct-2022-06-24/codelists/C185847", "title": "CDISC SDTM Menopause Status Response Terminology", "type": "Code List"}, "rootItem": {"href": "/mdr/root/ct/sdtmct/codelists/C185847", "title": "Version-agnostic anchor resource for codelist C185847", "type": "Root Value Domain"}, "self": {"href": "/mdr/ct/packages/sdtmct-2022-09-30/codelists/C185847", "title": "CDISC SDTM Menopause Status Response Terminology", "type": "Code List"}}, "conceptId": "C185847", "definition": "Terminology relevant to the responses for the status of a female with respect to menopause.", "extensible": "false", "name": "Menopause Status Response", "preferredTerm": "CDISC SDTM Menopause Status Response Terminology", "submissionValue": "MPSTATRS", "synonyms": ["Menopause Status Response"], "terms": [{"conceptId": "C15692", "definition": "The 10 or so years immediately prior to menopause when the subject experiences symptoms of menopause.", "preferredTerm": "Perimenopausal", "submissionValue": "PERIMENOPAUSAL", "synonyms": ["Menopause Transitional Phase"]}, {"conceptId": "C15421", "definition": "The period of time after menopause.", "preferredTerm": "Postmenopausal", "submissionValue": "POSTMENOPAUSAL"}, {"conceptId": "C15491", "definition": "The period of time before perimenopause.", "preferredTerm": "Premenopausal", "submissionValue": "PREMENOPAUSAL"}]}