{"_links": {"parentPackage": {"href": "/mdr/ct/packages/sdtmct-2022-09-30", "title": "SDTM Controlled Terminology Package 51 Effective 2022-09-30", "type": "Terminology"}, "priorVersion": {"href": "/mdr/ct/packages/sdtmct-2022-06-24/codelists/C185742", "title": "CDISC Questionnaire SF6D Version 2.0 Standard Test Code Terminology", "type": "Code List"}, "rootItem": {"href": "/mdr/root/ct/sdtmct/codelists/C185742", "title": "Version-agnostic anchor resource for codelist C185742", "type": "Root Value Domain"}, "self": {"href": "/mdr/ct/packages/sdtmct-2022-09-30/codelists/C185742", "title": "CDISC Questionnaire SF6D Version 2.0 Standard Test Code Terminology", "type": "Code List"}}, "conceptId": "C185742", "definition": "SF-6Dv2 Health Utility Survey Standard, English Version 2.0 test code.", "extensible": "false", "name": "SF-6Dv2 Health Utility Survey Standard, English Version 2.0 Questionnaire Test Code", "preferredTerm": "CDISC Questionnaire SF6D Version 2.0 Standard Test Code Terminology", "submissionValue": "SF6D1TC", "synonyms": ["SF-6Dv2 Health Utility Survey Standard, English Version 2.0 Questionnaire Test Code"], "terms": [{"conceptId": "C185773", "definition": "SF-6Dv2 Health Utility Survey Standard, English Version 2.0 (SF6D V2.0 STANDARD) - Does your health now limit you in your physical activities?", "preferredTerm": "SF6D Version 2.0 Standard - Health Limit Physical Activities", "submissionValue": "SF6D101", "synonyms": ["SF6D1-Health Limit Physical Activities"]}, {"conceptId": "C185774", "definition": "SF-6Dv2 Health Utility Survey Standard, English Version 2.0 (SF6D V2.0 STANDARD) - During the past 4 weeks, how much of the time have you accomplished less than you would like at work or during other regular daily activities as a result of your physical health or emotional problems?", "preferredTerm": "SF6D Version 2.0 Standard - Accomplished Less Due to Problems", "submissionValue": "SF6D102", "synonyms": ["SF6D1-Accomplished Less Due to Problems"]}, {"conceptId": "C185775", "definition": "SF-6Dv2 Health Utility Survey Standard, English Version 2.0 (SF6D V2.0 STANDARD) - During the past 4 weeks, how much bodily pain have you had?", "preferredTerm": "SF6D Version 2.0 Standard - How Much Bodily Pain Have You Had", "submissionValue": "SF6D103", "synonyms": ["SF6D1-How Much Bodily Pain Have You Had"]}, {"conceptId": "C185776", "definition": "SF-6Dv2 Health Utility Survey Standard, English Version 2.0 (SF6D V2.0 STANDARD) - During the past 4 weeks, how much of the time have you felt worn out?", "preferredTerm": "SF6D Version 2.0 Standard - Time Have You Felt Worn Out", "submissionValue": "SF6D104", "synonyms": ["SF6D1-Time Have You Felt Worn Out"]}, {"conceptId": "C185777", "definition": "SF-6Dv2 Health Utility Survey Standard, English Version 2.0 (SF6D V2.0 STANDARD) - During the past 4 weeks, how much of the time has your physical health or emotional problems interfered with your social activities (like visiting with friends, relatives, etc.)?", "preferredTerm": "SF6D Version 2.0 Standard - Interfered With Social Activities", "submissionValue": "SF6D105", "synonyms": ["SF6D1-Interfered With Social Activities"]}, {"conceptId": "C185778", "definition": "SF-6Dv2 Health Utility Survey Standard, English Version 2.0 (SF6D V2.0 STANDARD) - During the past 4 weeks, how much of the time have you felt depressed or very nervous?", "preferredTerm": "SF6D Version 2.0 Standard - Time Felt Depressed/Very Nervous", "submissionValue": "SF6D106", "synonyms": ["SF6D1-Time Felt Depressed/Very Nervous"]}, {"conceptId": "C185779", "definition": "SF-6Dv2 Health Utility Survey Standard, English Version 2.0 (SF6D V2.0 STANDARD) - Utility index score United Kingdom weights.", "preferredTerm": "SF6D Version 2.0 Standard - Utility Index Score UK Weights", "submissionValue": "SF6D107", "synonyms": ["SF6D1-Utility Index Score UK Weights"]}, {"conceptId": "C185780", "definition": "SF-6Dv2 Health Utility Survey Standard, English Version 2.0 (SF6D V2.0 STANDARD) - Utility index score Canada weights.", "preferredTerm": "SF6D Version 2.0 Standard - Utility Index Score CN Weights", "submissionValue": "SF6D108", "synonyms": ["SF6D1-Utility Index Score CN Weights"]}, {"conceptId": "C185781", "definition": "SF-6Dv2 Health Utility Survey Standard, English Version 2.0 (SF6D V2.0 STANDARD) - Utility index score Australia weights.", "preferredTerm": "SF6D Version 2.0 Standard - Utility Index Score AU Weights", "submissionValue": "SF6D109", "synonyms": ["SF6D1-Utility Index Score AU Weights"]}, {"conceptId": "C185782", "definition": "SF-6Dv2 Health Utility Survey Standard, English Version 2.0 (SF6D V2.0 STANDARD) - Utility index score United States weights.", "preferredTerm": "SF6D Version 2.0 Standard - Utility Index Score US Weights", "submissionValue": "SF6D110", "synonyms": ["SF6D1-Utility Index Score US Weights"]}]}