{"_links": {"parentPackage": {"href": "/mdr/ct/packages/sdtmct-2022-09-30", "title": "SDTM Controlled Terminology Package 51 Effective 2022-09-30", "type": "Terminology"}, "priorVersion": {"href": "/mdr/ct/packages/sdtmct-2022-06-24/codelists/C187451", "title": "CDISC Clinical Classification Clinician-Administered PTSD Scale (Current) DSM-5 With DSM IV Scoring 2016 Version Test Name Terminology", "type": "Code List"}, "rootItem": {"href": "/mdr/root/ct/sdtmct/codelists/C187451", "title": "Version-agnostic anchor resource for codelist C187451", "type": "Root Value Domain"}, "self": {"href": "/mdr/ct/packages/sdtmct-2022-09-30/codelists/C187451", "title": "CDISC Clinical Classification Clinician-Administered PTSD Scale (Current) DSM-5 With DSM IV Scoring 2016 Version Test Name Terminology", "type": "Code List"}}, "conceptId": "C187451", "definition": "Clinician-Administered PTSD Scale (Current) DSM-5 With DSM IV Scoring 2016 Version test name.", "extensible": "false", "name": "Clinician-Administered PTSD Scale (Current) DSM-5 With DSM IV Scoring 2016 Version Clinical Classification Test Name", "preferredTerm": "CDISC Clinical Classification Clinician-Administered PTSD Scale (Current) DSM-5 With DSM IV Scoring 2016 Version Test Name Terminology", "submissionValue": "CAP01TN", "synonyms": ["Clinician-Administered PTSD Scale (Current) DSM-5 With DSM IV Scoring 2016 Version Clinical Classification Test Name"], "terms": [{"conceptId": "C187546", "definition": "Clinician-Administered PTSD Scale (Current) DSM-5 With DSM IV Scoring 2016 Version - DSM IV Score: Efforts to avoid thoughts, feelings, or conversations associated with the trauma: Frequency.", "preferredTerm": "CAPS DSM-5 With DSM IV Scoring 2016 Version - Avoid Thoughts Associated Frequency", "submissionValue": "CAP01-Avoid Thoughts Associated Freq", "synonyms": ["CAP01-Avoid Thoughts Associated Freq"]}, {"conceptId": "C187547", "definition": "Clinician-Administered PTSD Scale (Current) DSM-5 With DSM IV Scoring 2016 Version - DSM IV Score: Efforts to avoid thoughts, feelings, or conversations associated with the trauma: Intensity.", "preferredTerm": "CAPS DSM-5 With DSM IV Scoring 2016 Version - Avoid Thoughts Associated Intensity", "submissionValue": "CAP01-Avoid Thoughts Associated Intens", "synonyms": ["CAP01-Avoid Thoughts Associated Intens"]}, {"conceptId": "C187545", "definition": "Clinician-Administered PTSD Scale (Current) DSM-5 With DSM IV Scoring 2016 Version - DSM-5 Scoring: Avoidance or efforts to avoid distressing memories, thoughts, or feelings about or closely associated with the traumatic event(s).", "preferredTerm": "CAPS DSM-5 With DSM IV Scoring 2016 Version - Avoid Thoughts Associated", "submissionValue": "CAP01-Avoid Thoughts Associated", "synonyms": ["CAP01-Avoid Thoughts Associated"]}, {"conceptId": "C187529", "definition": "Clinician-Administered PTSD Scale (Current) DSM-5 With DSM IV Scoring 2016 Version - Criterion A met?", "preferredTerm": "CAPS DSM-5 With DSM IV Scoring 2016 Version - Criterion A Met", "submissionValue": "CAP01-Criterion A Met", "synonyms": ["CAP01-Criterion A Met"]}, {"conceptId": "C187599", "definition": "Clinician-Administered PTSD Scale (Current) DSM-5 With DSM IV Scoring 2016 Version - DSM-5 Scoring: Depersonalization: Persistent or recurrent experiences of feeling detached from, and as if one were an outside observer of, one's mental processes or body (e.g., feeling as though one were in a dream; feeling a sense of unreality of self or body or of time moving slowly).", "preferredTerm": "CAPS DSM-5 With DSM IV Scoring 2016 Version - Depersonalization", "submissionValue": "CAP01-Depersonalization", "synonyms": ["CAP01-Depersonalization"]}, {"conceptId": "C187600", "definition": "Clinician-Administered PTSD Scale (Current) DSM-5 With DSM IV Scoring 2016 Version - DSM-5 Scoring: Derealization: Persistent or recurrent experiences of unreality of surroundings (e.g., the world around the individual is experienced as unreal, dreamlike, distant, or distorted).", "preferredTerm": "CAPS DSM-5 With DSM IV Scoring 2016 Version - Derealization", "submissionValue": "CAP01-Derealization", "synonyms": ["CAP01-Derealization"]}, {"conceptId": "C187579", "definition": "Clinician-Administered PTSD Scale (Current) DSM-5 With DSM IV Scoring 2016 Version - DSM IV Score: Difficulty concentrating: Frequency.", "preferredTerm": "CAPS DSM-5 With DSM IV Scoring 2016 Version - Difficulty Concentrating Frequency", "submissionValue": "CAP01-Difficulty Concentrating Freq", "synonyms": ["CAP01-Difficulty Concentrating Freq"]}, {"conceptId": "C187580", "definition": "Clinician-Administered PTSD Scale (Current) DSM-5 With DSM IV Scoring 2016 Version - DSM IV Score: Difficulty concentrating: Intensity.", "preferredTerm": "CAPS DSM-5 With DSM IV Scoring 2016 Version - Difficulty Concentrating Intensity", "submissionValue": "CAP01-Difficulty Concentrating Intens", "synonyms": ["CAP01-Difficulty Concentrating Intens"]}, {"conceptId": "C187582", "definition": "Clinician-Administered PTSD Scale (Current) DSM-5 With DSM IV Scoring 2016 Version - DSM IV Score: Difficulty falling or staying asleep: Frequency.", "preferredTerm": "CAPS DSM-5 With DSM IV Scoring 2016 Version - Difficulty Falling Asleep Frequency", "submissionValue": "CAP01-Difficulty Falling Asleep Freq", "synonyms": ["CAP01-Difficulty Falling Asleep Freq"]}, {"conceptId": "C187583", "definition": "Clinician-Administered PTSD Scale (Current) DSM-5 With DSM IV Scoring 2016 Version - DSM IV Score: Difficulty falling or staying asleep: Intensity.", "preferredTerm": "CAPS DSM-5 With DSM IV Scoring 2016 Version - Difficulty Falling Asleep Intensity", "submissionValue": "CAP01-Difficulty Falling Asleep Intens", "synonyms": ["CAP01-Difficulty Falling Asleep Intens"]}, {"conceptId": "C187558", "definition": "Clinician-Administered PTSD Scale (Current) DSM-5 With DSM IV Scoring 2016 Version - DSM IV Score: Markedly diminished interest or participation in significant activities: Frequency.", "preferredTerm": "CAPS DSM-5 With DSM IV Scoring 2016 Version - Diminished Interest Activities Frequency", "submissionValue": "CAP01-Diminished Interest Activ Freq", "synonyms": ["CAP01-Diminished Interest Activ Freq"]}, {"conceptId": "C187559", "definition": "Clinician-Administered PTSD Scale (Current) DSM-5 With DSM IV Scoring 2016 Version - DSM IV Score: Markedly diminished interest or participation in significant activities: Intensity.", "preferredTerm": "CAPS DSM-5 With DSM IV Scoring 2016 Version - Diminished Interest Activities Intensity", "submissionValue": "CAP01-Diminished Interest Activ Intens", "synonyms": ["CAP01-Diminished Interest Activ Intens"]}, {"conceptId": "C187557", "definition": "Clinician-Administered PTSD Scale (Current) DSM-5 With DSM IV Scoring 2016 Version - DSM-5 Scoring: Markedly diminished interest or participation in significant activities.", "preferredTerm": "CAPS DSM-5 With DSM IV Scoring 2016 Version - Diminished Interest Activities", "submissionValue": "CAP01-Diminished Interest Activ", "synonyms": ["CAP01-Diminished Interest Activ"]}, {"conceptId": "C187602", "definition": "Clinician-Administered PTSD Scale (Current) DSM-5 With DSM IV Scoring 2016 Version - DSM IV criterion B score.", "preferredTerm": "CAPS DSM-5 With DSM IV Scoring 2016 Version - DSM IV Criterion B Score", "submissionValue": "CAP01-DSM IV Criterion B Score", "synonyms": ["CAP01-DSM IV Criterion B Score"]}, {"conceptId": "C187603", "definition": "Clinician-Administered PTSD Scale (Current) DSM-5 With DSM IV Scoring 2016 Version - DSM IV criterion C score.", "preferredTerm": "CAPS DSM-5 With DSM IV Scoring 2016 Version - DSM IV Criterion C Score", "submissionValue": "CAP01-DSM IV Criterion C Score", "synonyms": ["CAP01-DSM IV Criterion C Score"]}, {"conceptId": "C187604", "definition": "Clinician-Administered PTSD Scale (Current) DSM-5 With DSM IV Scoring 2016 Version - DSM IV criterion D score.", "preferredTerm": "CAPS DSM-5 With DSM IV Scoring 2016 Version - DSM IV Criterion D Score", "submissionValue": "CAP01-DSM IV Criterion D Score", "synonyms": ["CAP01-DSM IV Criterion D Score"]}, {"conceptId": "C187605", "definition": "Clinician-Administered PTSD Scale (Current) DSM-5 With DSM IV Scoring 2016 Version - DSM IV criterion E score.", "preferredTerm": "CAPS DSM-5 With DSM IV Scoring 2016 Version - DSM IV Criterion E Score", "submissionValue": "CAP01-DSM IV Criterion E Score", "synonyms": ["CAP01-DSM IV Criterion E Score"]}, {"conceptId": "C187606", "definition": "Clinician-Administered PTSD Scale (Current) DSM-5 With DSM IV Scoring 2016 Version - DSM IV criterion G score.", "preferredTerm": "CAPS DSM-5 With DSM IV Scoring 2016 Version - DSM IV Criterion G Score", "submissionValue": "CAP01-DSM IV Criterion G Score", "synonyms": ["CAP01-DSM IV Criterion G Score"]}, {"conceptId": "C187607", "definition": "Clinician-Administered PTSD Scale (Current) DSM-5 With DSM IV Scoring 2016 Version - DSM IV dissociation score.", "preferredTerm": "CAPS DSM-5 With DSM IV Scoring 2016 Version - DSM IV Dissociation Score", "submissionValue": "CAP01-DSM IV Dissociation Score", "synonyms": ["CAP01-DSM IV Dissociation Score"]}, {"conceptId": "C187609", "definition": "Clinician-Administered PTSD Scale (Current) DSM-5 With DSM IV Scoring 2016 Version - DSM IV other diagnosis 1.", "preferredTerm": "CAPS DSM-5 With DSM IV Scoring 2016 Version - DSM IV Other Diagnosis 1", "submissionValue": "CAP01-DSM IV Other Diagnosis 1", "synonyms": ["CAP01-DSM IV Other Diagnosis 1"]}, {"conceptId": "C187610", "definition": "Clinician-Administered PTSD Scale (Current) DSM-5 With DSM IV Scoring 2016 Version - DSM IV other diagnosis 2.", "preferredTerm": "CAPS DSM-5 With DSM IV Scoring 2016 Version - DSM IV Other Diagnosis 2", "submissionValue": "CAP01-DSM IV Other Diagnosis 2", "synonyms": ["CAP01-DSM IV Other Diagnosis 2"]}, {"conceptId": "C187608", "definition": "Clinician-Administered PTSD Scale (Current) DSM-5 With DSM IV Scoring 2016 Version - DSM IV PTSD diagnosis.", "preferredTerm": "CAPS DSM-5 With DSM IV Scoring 2016 Version - DSM IV PTSD Diagnosis", "submissionValue": "CAP01-DSM IV PTSD Diagnosis", "synonyms": ["CAP01-DSM IV PTSD Diagnosis"]}, {"conceptId": "C187601", "definition": "Clinician-Administered PTSD Scale (Current) DSM-5 With DSM IV Scoring 2016 Version - DSM IV total score.", "preferredTerm": "CAPS DSM-5 With DSM IV Scoring 2016 Version - DSM IV Total Score", "submissionValue": "CAP01-DSM IV Total Score", "synonyms": ["CAP01-DSM IV Total Score"]}, {"conceptId": "C187612", "definition": "Clinician-Administered PTSD Scale (Current) DSM-5 With DSM IV Scoring 2016 Version - DSM-5 criterion B score.", "preferredTerm": "CAPS DSM-5 With DSM IV Scoring 2016 Version - DSM-5 Criterion B Score", "submissionValue": "CAP01-DSM-5 Criterion B Score", "synonyms": ["CAP01-DSM-5 Criterion B Score"]}, {"conceptId": "C187613", "definition": "Clinician-Administered PTSD Scale (Current) DSM-5 With DSM IV Scoring 2016 Version - DSM-5 criterion C score.", "preferredTerm": "CAPS DSM-5 With DSM IV Scoring 2016 Version - DSM-5 Criterion C Score", "submissionValue": "CAP01-DSM-5 Criterion C Score", "synonyms": ["CAP01-DSM-5 Criterion C Score"]}, {"conceptId": "C187614", "definition": "Clinician-Administered PTSD Scale (Current) DSM-5 With DSM IV Scoring 2016 Version - DSM-5 criterion D score.", "preferredTerm": "CAPS DSM-5 With DSM IV Scoring 2016 Version - DSM-5 Criterion D Score", "submissionValue": "CAP01-DSM-5 Criterion D Score", "synonyms": ["CAP01-DSM-5 Criterion D Score"]}, {"conceptId": "C187615", "definition": "Clinician-Administered PTSD Scale (Current) DSM-5 With DSM IV Scoring 2016 Version - DSM-5 criterion E score.", "preferredTerm": "CAPS DSM-5 With DSM IV Scoring 2016 Version - DSM-5 Criterion E Score", "submissionValue": "CAP01-DSM-5 Criterion E Score", "synonyms": ["CAP01-DSM-5 Criterion E Score"]}, {"conceptId": "C187616", "definition": "Clinician-Administered PTSD Scale (Current) DSM-5 With DSM IV Scoring 2016 Version - DSM-5 criterion G score.", "preferredTerm": "CAPS DSM-5 With DSM IV Scoring 2016 Version - DSM-5 Criterion G Score", "submissionValue": "CAP01-DSM-5 Criterion G Score", "synonyms": ["CAP01-DSM-5 Criterion G Score"]}, {"conceptId": "C187617", "definition": "Clinician-Administered PTSD Scale (Current) DSM-5 With DSM IV Scoring 2016 Version - DSM-5 dissociation score.", "preferredTerm": "CAPS DSM-5 With DSM IV Scoring 2016 Version - DSM-5 Dissociation Score", "submissionValue": "CAP01-DSM-5 Dissociation Score", "synonyms": ["CAP01-DSM-5 Dissociation Score"]}, {"conceptId": "C187619", "definition": "Clinician-Administered PTSD Scale (Current) DSM-5 With DSM IV Scoring 2016 Version - DSM-5 other diagnosis 1.", "preferredTerm": "CAPS DSM-5 With DSM IV Scoring 2016 Version - DSM-5 Other Diagnosis 1", "submissionValue": "CAP01-DSM-5 Other Diagnosis 1", "synonyms": ["CAP01-DSM-5 Other Diagnosis 1"]}, {"conceptId": "C187620", "definition": "Clinician-Administered PTSD Scale (Current) DSM-5 With DSM IV Scoring 2016 Version - DSM-5 other diagnosis 2.", "preferredTerm": "CAPS DSM-5 With DSM IV Scoring 2016 Version - DSM-5 Other Diagnosis 2", "submissionValue": "CAP01-DSM-5 Other Diagnosis 2", "synonyms": ["CAP01-DSM-5 Other Diagnosis 2"]}, {"conceptId": "C187618", "definition": "Clinician-Administered PTSD Scale (Current) DSM-5 With DSM IV Scoring 2016 Version - DSM-5 PTSD diagnosis.", "preferredTerm": "CAPS DSM-5 With DSM IV Scoring 2016 Version - DSM-5 PTSD Diagnosis", "submissionValue": "CAP01-DSM-5 PTSD Diagnosis", "synonyms": ["CAP01-DSM-5 PTSD Diagnosis"]}, {"conceptId": "C187611", "definition": "Clinician-Administered PTSD Scale (Current) DSM-5 With DSM IV Scoring 2016 Version - DSM-5 total score.", "preferredTerm": "CAPS DSM-5 With DSM IV Scoring 2016 Version - DSM-5 Total Score", "submissionValue": "CAP01-DSM-5 Total Score", "synonyms": ["CAP01-DSM-5 Total Score"]}, {"conceptId": "C187549", "definition": "Clinician-Administered PTSD Scale (Current) DSM-5 With DSM IV Scoring 2016 Version - DSM IV Score: Efforts to avoid activities, places, or people that arouse recollections of the trauma: Frequency.", "preferredTerm": "CAPS DSM-5 With DSM IV Scoring 2016 Version - Efforts to Avoid Activities Frequency", "submissionValue": "CAP01-Efforts to Avoid Activities Freq", "synonyms": ["CAP01-Efforts to Avoid Activities Freq"]}, {"conceptId": "C187550", "definition": "Clinician-Administered PTSD Scale (Current) DSM-5 With DSM IV Scoring 2016 Version - DSM IV Score: Efforts to avoid activities, places, or people that arouse recollections of the trauma: Intensity.", "preferredTerm": "CAPS DSM-5 With DSM IV Scoring 2016 Version - Efforts to Avoid Activities Intensity", "submissionValue": "CAP01-Efforts to Avoid Activities Intens", "synonyms": ["CAP01-Efforts to Avoid Activities Intens"]}, {"conceptId": "C187548", "definition": "Clinician-Administered PTSD Scale (Current) DSM-5 With DSM IV Scoring 2016 Version - DSM-5 Scoring: Avoidance or efforts to avoid external reminders (people, places, conversations, activities, objects, situations) that arouse distressing memories, thoughts, or feelings about or closely associated with the traumatic event(s).", "preferredTerm": "CAPS DSM-5 With DSM IV Scoring 2016 Version - Efforts to Avoid External Reminder", "submissionValue": "CAP01-Efforts to Avoid External Reminder", "synonyms": ["CAP01-Efforts to Avoid External Reminder"]}, {"conceptId": "C187576", "definition": "Clinician-Administered PTSD Scale (Current) DSM-5 With DSM IV Scoring 2016 Version - DSM IV Score: Exaggerated startle response: Frequency.", "preferredTerm": "CAPS DSM-5 With DSM IV Scoring 2016 Version - Exaggerated Response Frequency", "submissionValue": "CAP01-Exaggerated Response Freq", "synonyms": ["CAP01-Exaggerated Response Freq"]}, {"conceptId": "C187577", "definition": "Clinician-Administered PTSD Scale (Current) DSM-5 With DSM IV Scoring 2016 Version - DSM IV Score: Exaggerated startle response: Intensity.", "preferredTerm": "CAPS DSM-5 With DSM IV Scoring 2016 Version - Exaggerated Response Intensity", "submissionValue": "CAP01-Exaggerated Response Intens", "synonyms": ["CAP01-Exaggerated Response Intens"]}, {"conceptId": "C187575", "definition": "Clinician-Administered PTSD Scale (Current) DSM-5 With DSM IV Scoring 2016 Version - DSM-5 Scoring: Exaggerated startle response.", "preferredTerm": "CAPS DSM-5 With DSM IV Scoring 2016 Version - Exaggerated Response", "submissionValue": "CAP01-Exaggerated Response", "synonyms": ["CAP01-Exaggerated Response"]}, {"conceptId": "C187519", "definition": "Clinician-Administered PTSD Scale (Current) DSM-5 With DSM IV Scoring 2016 Version - Exposure type.", "preferredTerm": "CAPS DSM-5 With DSM IV Scoring 2016 Version - Exposure Type", "submissionValue": "CAP01-Exposure Type", "synonyms": ["CAP01-Exposure Type"]}, {"conceptId": "C187537", "definition": "Clinician-Administered PTSD Scale (Current) DSM-5 With DSM IV Scoring 2016 Version - DSM IV Score: Acting or feeling as if the traumatic event were recurring (includes a sense of reliving the experience, illusions, hallucinations, and dissociative flashback episodes, including those that occur on awakening or when intoxicated.): Frequency.", "preferredTerm": "CAPS DSM-5 With DSM IV Scoring 2016 Version - Feel as if Event Recurring Frequency", "submissionValue": "CAP01-Feel as if Event Recurring Freq", "synonyms": ["CAP01-Feel as if Event Recurring Freq"]}, {"conceptId": "C187538", "definition": "Clinician-Administered PTSD Scale (Current) DSM-5 With DSM IV Scoring 2016 Version - DSM IV Score: Acting or feeling as if the traumatic event were recurring (includes a sense of reliving the experience, illusions, hallucinations, and dissociative flashback episodes, including those that occur on awakening or when intoxicated.): Intensity.", "preferredTerm": "CAPS DSM-5 With DSM IV Scoring 2016 Version - Feel as if Event Recurring Intensity", "submissionValue": "CAP01-Feel as if Event Recurring Intens", "synonyms": ["CAP01-Feel as if Event Recurring Intens"]}, {"conceptId": "C187536", "definition": "Clinician-Administered PTSD Scale (Current) DSM-5 With DSM IV Scoring 2016 Version - DSM-5 Scoring: Dissociative reactions (e.g., flashbacks) in which the individual feels or acts as if the traumatic event(s) were recurring. (Such reactions may occur on a continuum, with the most extreme expression being a complete loss of awareness of present surroundings.)", "preferredTerm": "CAPS DSM-5 With DSM IV Scoring 2016 Version - Feel as if Event Recurring", "submissionValue": "CAP01-Feel as if Event Recurring", "synonyms": ["CAP01-Feel as if Event Recurring"]}, {"conceptId": "C187561", "definition": "Clinician-Administered PTSD Scale (Current) DSM-5 With DSM IV Scoring 2016 Version - DSM IV Score: Feeling of detachment or estrangement from others: Frequency.", "preferredTerm": "CAPS DSM-5 With DSM IV Scoring 2016 Version - Feeling of Detachment Frequency", "submissionValue": "CAP01-Feeling of Detachment Freq", "synonyms": ["CAP01-Feeling of Detachment Freq"]}, {"conceptId": "C187562", "definition": "Clinician-Administered PTSD Scale (Current) DSM-5 With DSM IV Scoring 2016 Version - DSM IV Score: Feeling of detachment or estrangement from others: Intensity.", "preferredTerm": "CAPS DSM-5 With DSM IV Scoring 2016 Version - Feeling of Detachment Intensity", "submissionValue": "CAP01-Feeling of Detachment Intens", "synonyms": ["CAP01-Feeling of Detachment Intens"]}, {"conceptId": "C187560", "definition": "Clinician-Administered PTSD Scale (Current) DSM-5 With DSM IV Scoring 2016 Version - DSM-5 Scoring: Feelings of detachment or estrangement from others.", "preferredTerm": "CAPS DSM-5 With DSM IV Scoring 2016 Version - Feeling of Detachment", "submissionValue": "CAP01-Feeling of Detachment", "synonyms": ["CAP01-Feeling of Detachment"]}, {"conceptId": "C187598", "definition": "Clinician-Administered PTSD Scale (Current) DSM-5 With DSM IV Scoring 2016 Version - DSM-5 Scoring and/or DSM IV Score: Global improvement.", "preferredTerm": "CAPS DSM-5 With DSM IV Scoring 2016 Version - Global Improvement", "submissionValue": "CAP01-Global Improvement", "synonyms": ["CAP01-Global Improvement"]}, {"conceptId": "C187597", "definition": "Clinician-Administered PTSD Scale (Current) DSM-5 With DSM IV Scoring 2016 Version - DSM-5 Scoring and/or DSM IV Score: Global severity.", "preferredTerm": "CAPS DSM-5 With DSM IV Scoring 2016 Version - Global Severity", "submissionValue": "CAP01-Global Severity", "synonyms": ["CAP01-Global Severity"]}, {"conceptId": "C187596", "definition": "Clinician-Administered PTSD Scale (Current) DSM-5 With DSM IV Scoring 2016 Version - DSM-5 Scoring and/or DSM IV Score: Global validity.", "preferredTerm": "CAPS DSM-5 With DSM IV Scoring 2016 Version - Global Validity", "submissionValue": "CAP01-Global Validity", "synonyms": ["CAP01-Global Validity"]}, {"conceptId": "C187573", "definition": "Clinician-Administered PTSD Scale (Current) DSM-5 With DSM IV Scoring 2016 Version - DSM IV Score: Hypervigilance: Frequency.", "preferredTerm": "CAPS DSM-5 With DSM IV Scoring 2016 Version - Hypervigilance Frequency", "submissionValue": "CAP01-Hypervigilance Freq", "synonyms": ["CAP01-Hypervigilance Freq"]}, {"conceptId": "C187574", "definition": "Clinician-Administered PTSD Scale (Current) DSM-5 With DSM IV Scoring 2016 Version - DSM IV Score: Hypervigilance: Intensity.", "preferredTerm": "CAPS DSM-5 With DSM IV Scoring 2016 Version - Hypervigilance Intensity", "submissionValue": "CAP01-Hypervigilance Intens", "synonyms": ["CAP01-Hypervigilance Intens"]}, {"conceptId": "C187572", "definition": "Clinician-Administered PTSD Scale (Current) DSM-5 With DSM IV Scoring 2016 Version - DSM-5 Scoring: Hypervigilance.", "preferredTerm": "CAPS DSM-5 With DSM IV Scoring 2016 Version - Hypervigilance", "submissionValue": "CAP01-Hypervigilance", "synonyms": ["CAP01-Hypervigilance"]}, {"conceptId": "C187563", "definition": "Clinician-Administered PTSD Scale (Current) DSM-5 With DSM IV Scoring 2016 Version - DSM-5 Scoring: Persistent inability to experience positive emotions (e.g., inability to experience happiness, satisfaction, or loving feelings).", "preferredTerm": "CAPS DSM-5 With DSM IV Scoring 2016 Version - Inability Positive Emotions", "submissionValue": "CAP01-Inability Positive Emotions", "synonyms": ["CAP01-Inability Positive Emotions"]}, {"conceptId": "C187552", "definition": "Clinician-Administered PTSD Scale (Current) DSM-5 With DSM IV Scoring 2016 Version - DSM IV Score: Inability to recall an important aspect of the trauma: Frequency.", "preferredTerm": "CAPS DSM-5 With DSM IV Scoring 2016 Version - Inability to Recall Aspect Frequency", "submissionValue": "CAP01-Inability to Recall Aspect Freq", "synonyms": ["CAP01-Inability to Recall Aspect Freq"]}, {"conceptId": "C187553", "definition": "Clinician-Administered PTSD Scale (Current) DSM-5 With DSM IV Scoring 2016 Version - DSM IV Score: Inability to recall an important aspect of the trauma: Intensity.", "preferredTerm": "CAPS DSM-5 With DSM IV Scoring 2016 Version - Inability to Recall Aspect Intensity", "submissionValue": "CAP01-Inability to Recall Aspect Intens", "synonyms": ["CAP01-Inability to Recall Aspect Intens"]}, {"conceptId": "C187551", "definition": "Clinician-Administered PTSD Scale (Current) DSM-5 With DSM IV Scoring 2016 Version - DSM-5 Scoring: Inability to remember an important aspect of the traumatic event(s) (typically dissociative amnesia that is not due to head injury, alcohol, or drugs).", "preferredTerm": "CAPS DSM-5 With DSM IV Scoring 2016 Version - Inability to Remember Aspect", "submissionValue": "CAP01-Inability to Remember Aspect", "synonyms": ["CAP01-Inability to Remember Aspect"]}, {"conceptId": "C187569", "definition": "Clinician-Administered PTSD Scale (Current) DSM-5 With DSM IV Scoring 2016 Version - DSM IV Score: Irritability or outbursts of anger: Frequency.", "preferredTerm": "CAPS DSM-5 With DSM IV Scoring 2016 Version - Irritability or Outbursts Frequency", "submissionValue": "CAP01-Irritability/Outbursts Freq", "synonyms": ["CAP01-Irritability/Outbursts Freq"]}, {"conceptId": "C187570", "definition": "Clinician-Administered PTSD Scale (Current) DSM-5 With DSM IV Scoring 2016 Version - DSM IV Score: Irritability or outbursts of anger: Intensity.", "preferredTerm": "CAPS DSM-5 With DSM IV Scoring 2016 Version - Irritability or Outbursts Intensity", "submissionValue": "CAP01-Irritability/Outbursts Intens", "synonyms": ["CAP01-Irritability/Outbursts Intens"]}, {"conceptId": "C187568", "definition": "Clinician-Administered PTSD Scale (Current) DSM-5 With DSM IV Scoring 2016 Version - DSM-5 Scoring: Irritable behavior and angry outbursts (with little or no provocation) typically expressed as verbal or physical aggression toward people or objects.", "preferredTerm": "CAPS DSM-5 With DSM IV Scoring 2016 Version - Irritable Behavior Angry Outbursts", "submissionValue": "CAP01-Irritable Behavior Angry Outbursts", "synonyms": ["CAP01-Irritable Behavior Angry Outbursts"]}, {"conceptId": "C187522", "definition": "Clinician-Administered PTSD Scale (Current) DSM-5 With DSM IV Scoring 2016 Version - Life threat: Other.", "preferredTerm": "CAPS DSM-5 With DSM IV Scoring 2016 Version - Life Threat Other", "submissionValue": "CAP01-Life Threat Other", "synonyms": ["CAP01-Life Threat Other"]}, {"conceptId": "C187521", "definition": "Clinician-Administered PTSD Scale (Current) DSM-5 With DSM IV Scoring 2016 Version - Life threat: Self.", "preferredTerm": "CAPS DSM-5 With DSM IV Scoring 2016 Version - Life Threat Self", "submissionValue": "CAP01-Life Threat Self", "synonyms": ["CAP01-Life Threat Self"]}, {"conceptId": "C187520", "definition": "Clinician-Administered PTSD Scale (Current) DSM-5 With DSM IV Scoring 2016 Version - Life threat?", "preferredTerm": "CAPS DSM-5 With DSM IV Scoring 2016 Version - Life Threat", "submissionValue": "CAP01-Life Threat", "synonyms": ["CAP01-Life Threat"]}, {"conceptId": "C187595", "definition": "Clinician-Administered PTSD Scale (Current) DSM-5 With DSM IV Scoring 2016 Version - DSM-5 Scoring and/or DSM IV Score: Impairment in occupational or other important area of functioning: Lifetime.", "preferredTerm": "CAPS DSM-5 With DSM IV Scoring 2016 Version - Occupation Functioning Lifetime", "submissionValue": "CAP01-Occupation Functioning Lifetime", "synonyms": ["CAP01-Occupation Functioning Lifetime"]}, {"conceptId": "C187594", "definition": "Clinician-Administered PTSD Scale (Current) DSM-5 With DSM IV Scoring 2016 Version - DSM-5 Scoring and/or DSM IV Score: Impairment in occupational or other important area of functioning: In the past month.", "preferredTerm": "CAPS DSM-5 With DSM IV Scoring 2016 Version - Occupation Functioning Past Month", "submissionValue": "CAP01-Occupation Functioning Past Month", "synonyms": ["CAP01-Occupation Functioning Past Month"]}, {"conceptId": "C187555", "definition": "Clinician-Administered PTSD Scale (Current) DSM-5 With DSM IV Scoring 2016 Version - DSM-5 Scoring: Persistent, distorted blame of self or others about the cause or consequences of the traumatic event(s).", "preferredTerm": "CAPS DSM-5 With DSM IV Scoring 2016 Version - Persistent Blame of Self or Others", "submissionValue": "CAP01-Persistent Blame of Self/Others", "synonyms": ["CAP01-Persistent Blame of Self/Others"]}, {"conceptId": "C187554", "definition": "Clinician-Administered PTSD Scale (Current) DSM-5 With DSM IV Scoring 2016 Version - DSM-5 Scoring: Persistent and exaggerated negative beliefs or expectations about oneself, others, or the world (e.g., \"I am bad,\" \"No one can be trusted,\" \"The world is completely dangerous\"). (Alternatively, this might be expressed as, e.g., \"I've lost my soul forever,\" \"My whole nervous system is permanently ruined.\").", "preferredTerm": "CAPS DSM-5 With DSM IV Scoring 2016 Version - Persistent Exaggerated Negative Beliefs", "submissionValue": "CAP01-Persistent Exaggerated Neg Beliefs", "synonyms": ["CAP01-Persistent Exaggerated Neg Beliefs"]}, {"conceptId": "C187556", "definition": "Clinician-Administered PTSD Scale (Current) DSM-5 With DSM IV Scoring 2016 Version - DSM-5 Scoring: Persistent negative emotional state (e.g., fear, horror, anger, guilt, or shame).", "preferredTerm": "CAPS DSM-5 With DSM IV Scoring 2016 Version - Persistent Negative Emotional State", "submissionValue": "CAP01-Persistent Neg Emotional State", "synonyms": ["CAP01-Persistent Neg Emotional State"]}, {"conceptId": "C187543", "definition": "Clinician-Administered PTSD Scale (Current) DSM-5 With DSM IV Scoring 2016 Version - DSM IV Score: Physiological reactivity on exposure to internal or external cues that symbolize or resemble an aspect of the traumatic event: Frequency.", "preferredTerm": "CAPS DSM-5 With DSM IV Scoring 2016 Version - Physiological Reactions to Cues Frequency", "submissionValue": "CAP01-Physiological React to Cues Freq", "synonyms": ["CAP01-Physiological React to Cues Freq"]}, {"conceptId": "C187544", "definition": "Clinician-Administered PTSD Scale (Current) DSM-5 With DSM IV Scoring 2016 Version - DSM IV Score: Physiological reactivity on exposure to internal or external cues that symbolize or resemble an aspect of the traumatic event: Intensity.", "preferredTerm": "CAPS DSM-5 With DSM IV Scoring 2016 Version - Physiological Reactions to Cues Intensity", "submissionValue": "CAP01-Physiological React to Cues Intens", "synonyms": ["CAP01-Physiological React to Cues Intens"]}, {"conceptId": "C187542", "definition": "Clinician-Administered PTSD Scale (Current) DSM-5 With DSM IV Scoring 2016 Version - DSM-5 Scoring: Marked physiological reactions to internal or external cues that symbolize or resemble an aspect of the traumatic event(s).", "preferredTerm": "CAPS DSM-5 With DSM IV Scoring 2016 Version - Physiological Reactions to Cues", "submissionValue": "CAP01-Physiological React to Cues", "synonyms": ["CAP01-Physiological React to Cues"]}, {"conceptId": "C187578", "definition": "Clinician-Administered PTSD Scale (Current) DSM-5 With DSM IV Scoring 2016 Version - DSM-5 Scoring: Problems with concentration.", "preferredTerm": "CAPS DSM-5 With DSM IV Scoring 2016 Version - Problems With Concentration", "submissionValue": "CAP01-Problems With Concentration", "synonyms": ["CAP01-Problems With Concentration"]}, {"conceptId": "C187540", "definition": "Clinician-Administered PTSD Scale (Current) DSM-5 With DSM IV Scoring 2016 Version - DSM IV Score: Intense psychological distress at exposure to internal or external cues that symbolize or resemble an aspect of the traumatic event: Frequency.", "preferredTerm": "CAPS DSM-5 With DSM IV Scoring 2016 Version - Psychological Distress at Exposure Frequency", "submissionValue": "CAP01-Psych Distress at Exposure Freq", "synonyms": ["CAP01-Psych Distress at Exposure Freq"]}, {"conceptId": "C187541", "definition": "Clinician-Administered PTSD Scale (Current) DSM-5 With DSM IV Scoring 2016 Version - DSM IV Score: Intense psychological distress at exposure to internal or external cues that symbolize or resemble an aspect of the traumatic event: Intensity.", "preferredTerm": "CAPS DSM-5 With DSM IV Scoring 2016 Version - Psychological Distress at Exposure Intensity", "submissionValue": "CAP01-Psych Distress at Exposure Intens", "synonyms": ["CAP01-Psych Distress at Exposure Intens"]}, {"conceptId": "C187539", "definition": "Clinician-Administered PTSD Scale (Current) DSM-5 With DSM IV Scoring 2016 Version - DSM-5 Scoring: Intense or prolonged psychological distress at exposure to internal or external cues that symbolize or resemble an aspect of the traumatic event(s).", "preferredTerm": "CAPS DSM-5 With DSM IV Scoring 2016 Version - Psychological Distress at Exposure", "submissionValue": "CAP01-Psych Distress at Exposure", "synonyms": ["CAP01-Psych Distress at Exposure"]}, {"conceptId": "C187571", "definition": "Clinician-Administered PTSD Scale (Current) DSM-5 With DSM IV Scoring 2016 Version - DSM-5 Scoring: Reckless or self-destructive behavior.", "preferredTerm": "CAPS DSM-5 With DSM IV Scoring 2016 Version - Reckless or Self-destructive", "submissionValue": "CAP01-Reckless or Self-destructive", "synonyms": ["CAP01-Reckless or Self-destructive"]}, {"conceptId": "C187534", "definition": "Clinician-Administered PTSD Scale (Current) DSM-5 With DSM IV Scoring 2016 Version - DSM IV Score: Recurrent distressing dreams of the event: Frequency.", "preferredTerm": "CAPS DSM-5 With DSM IV Scoring 2016 Version - Recurrent Distressing Dream Frequency", "submissionValue": "CAP01-Recurrent Distressing Dream Freq", "synonyms": ["CAP01-Recurrent Distressing Dream Freq"]}, {"conceptId": "C187535", "definition": "Clinician-Administered PTSD Scale (Current) DSM-5 With DSM IV Scoring 2016 Version - DSM IV Score: Recurrent distressing dreams of the event: Intensity.", "preferredTerm": "CAPS DSM-5 With DSM IV Scoring 2016 Version - Recurrent Distressing Dream Intensity", "submissionValue": "CAP01-Recurrent Distressing Dream Intens", "synonyms": ["CAP01-Recurrent Distressing Dream Intens"]}, {"conceptId": "C187533", "definition": "Clinician-Administered PTSD Scale (Current) DSM-5 With DSM IV Scoring 2016 Version - DSM-5 Scoring: Recurrent distressing dreams in which the content and/or affect of the dream is related to the event(s).", "preferredTerm": "CAPS DSM-5 With DSM IV Scoring 2016 Version - Recurrent Distressing Dream", "submissionValue": "CAP01-Recurrent Distressing Dream", "synonyms": ["CAP01-Recurrent Distressing Dream"]}, {"conceptId": "C187530", "definition": "Clinician-Administered PTSD Scale (Current) DSM-5 With DSM IV Scoring 2016 Version - DSM-5 Scoring: Recurrent, involuntary, and intrusive distressing memories of the traumatic event(s).", "preferredTerm": "CAPS DSM-5 With DSM IV Scoring 2016 Version - Recurrent Distressing Memories", "submissionValue": "CAP01-Recurrent Distressing Memories", "synonyms": ["CAP01-Recurrent Distressing Memories"]}, {"conceptId": "C187531", "definition": "Clinician-Administered PTSD Scale (Current) DSM-5 With DSM IV Scoring 2016 Version - DSM IV Score: Recurrent and intrusive distressing recollections of the event, including images, thoughts, or perceptions: Frequency.", "preferredTerm": "CAPS DSM-5 With DSM IV Scoring 2016 Version - Recurrent Distressing Recollections Frequency", "submissionValue": "CAP01-Recurrent Distressing Recol Freq", "synonyms": ["CAP01-Recurrent Distressing Recol Freq"]}, {"conceptId": "C187532", "definition": "Clinician-Administered PTSD Scale (Current) DSM-5 With DSM IV Scoring 2016 Version - DSM IV Score: Recurrent and intrusive distressing recollections of the event, including images, thoughts, or perceptions: Intensity.", "preferredTerm": "CAPS DSM-5 With DSM IV Scoring 2016 Version - Recurrent Distressing Recollections Intensity", "submissionValue": "CAP01-Recurrent Distressing Recol Intens", "synonyms": ["CAP01-Recurrent Distressing Recol Intens"]}, {"conceptId": "C187564", "definition": "Clinician-Administered PTSD Scale (Current) DSM-5 With DSM IV Scoring 2016 Version - DSM IV Score: Restricted range of affect (e.g., unable to have loving feelings): Frequency.", "preferredTerm": "CAPS DSM-5 With DSM IV Scoring 2016 Version - Restricted Range of Affect Frequency", "submissionValue": "CAP01-Restricted Range of Affect Freq", "synonyms": ["CAP01-Restricted Range of Affect Freq"]}, {"conceptId": "C187565", "definition": "Clinician-Administered PTSD Scale (Current) DSM-5 With DSM IV Scoring 2016 Version - DSM IV Score: Restricted range of affect (e.g., unable to have loving feelings): Intensity.", "preferredTerm": "CAPS DSM-5 With DSM IV Scoring 2016 Version - Restricted Range of Affect Intensity", "submissionValue": "CAP01-Restricted Range of Affect Intens", "synonyms": ["CAP01-Restricted Range of Affect Intens"]}, {"conceptId": "C187566", "definition": "Clinician-Administered PTSD Scale (Current) DSM-5 With DSM IV Scoring 2016 Version - DSM IV Score: Sense of a foreshortened future (e.g., does not expect to have a career, marriage, children, or a normal life span): Frequency.", "preferredTerm": "CAPS DSM-5 With DSM IV Scoring 2016 Version - Sense Foreshortened Future Frequency", "submissionValue": "CAP01-Sense Foreshortened Future Freq", "synonyms": ["CAP01-Sense Foreshortened Future Freq"]}, {"conceptId": "C187567", "definition": "Clinician-Administered PTSD Scale (Current) DSM-5 With DSM IV Scoring 2016 Version - DSM IV Score: Sense of a foreshortened future (e.g., does not expect to have a career, marriage, children, or a normal life span): Intensity.", "preferredTerm": "CAPS DSM-5 With DSM IV Scoring 2016 Version - Sense Foreshortened Future Intensity", "submissionValue": "CAP01-Sense Foreshortened Future Intens", "synonyms": ["CAP01-Sense Foreshortened Future Intens"]}, {"conceptId": "C187525", "definition": "Clinician-Administered PTSD Scale (Current) DSM-5 With DSM IV Scoring 2016 Version - Serious injury: Other.", "preferredTerm": "CAPS DSM-5 With DSM IV Scoring 2016 Version - Serious Injury Other", "submissionValue": "CAP01-Serious Injury Other", "synonyms": ["CAP01-Serious Injury Other"]}, {"conceptId": "C187524", "definition": "Clinician-Administered PTSD Scale (Current) DSM-5 With DSM IV Scoring 2016 Version - Serious injury: Self.", "preferredTerm": "CAPS DSM-5 With DSM IV Scoring 2016 Version - Serious Injury Self", "submissionValue": "CAP01-Serious Injury Self", "synonyms": ["CAP01-Serious Injury Self"]}, {"conceptId": "C187523", "definition": "Clinician-Administered PTSD Scale (Current) DSM-5 With DSM IV Scoring 2016 Version - Serious injury?", "preferredTerm": "CAPS DSM-5 With DSM IV Scoring 2016 Version - Serious Injury", "submissionValue": "CAP01-Serious Injury", "synonyms": ["CAP01-Serious Injury"]}, {"conceptId": "C187528", "definition": "Clinician-Administered PTSD Scale (Current) DSM-5 With DSM IV Scoring 2016 Version - Sexual violation: Other.", "preferredTerm": "CAPS DSM-5 With DSM IV Scoring 2016 Version - Sexual Violation Other", "submissionValue": "CAP01-Sexual Violation Other", "synonyms": ["CAP01-Sexual Violation Other"]}, {"conceptId": "C187527", "definition": "Clinician-Administered PTSD Scale (Current) DSM-5 With DSM IV Scoring 2016 Version - Sexual violation: Self.", "preferredTerm": "CAPS DSM-5 With DSM IV Scoring 2016 Version - Sexual Violation Self", "submissionValue": "CAP01-Sexual Violation Self", "synonyms": ["CAP01-Sexual Violation Self"]}, {"conceptId": "C187526", "definition": "Clinician-Administered PTSD Scale (Current) DSM-5 With DSM IV Scoring 2016 Version - Sexual violation?", "preferredTerm": "CAPS DSM-5 With DSM IV Scoring 2016 Version - Sexual Violation", "submissionValue": "CAP01-Sexual Violation", "synonyms": ["CAP01-Sexual Violation"]}, {"conceptId": "C187581", "definition": "Clinician-Administered PTSD Scale (Current) DSM-5 With DSM IV Scoring 2016 Version - DSM-5 Scoring: Sleep disturbance (e.g., difficulty falling or staying asleep or restless sleep).", "preferredTerm": "CAPS DSM-5 With DSM IV Scoring 2016 Version - Sleep Disturbance", "submissionValue": "CAP01-Sleep Disturbance", "synonyms": ["CAP01-Sleep Disturbance"]}, {"conceptId": "C187593", "definition": "Clinician-Administered PTSD Scale (Current) DSM-5 With DSM IV Scoring 2016 Version - DSM-5 Scoring and/or DSM IV Score: Impairment in social functioning: Lifetime.", "preferredTerm": "CAPS DSM-5 With DSM IV Scoring 2016 Version - Social Functioning Lifetime", "submissionValue": "CAP01-Social Functioning Lifetime", "synonyms": ["CAP01-Social Functioning Lifetime"]}, {"conceptId": "C187592", "definition": "Clinician-Administered PTSD Scale (Current) DSM-5 With DSM IV Scoring 2016 Version - DSM-5 Scoring and/or DSM IV Score: Impairment in social functioning: In the past month.", "preferredTerm": "CAPS DSM-5 With DSM IV Scoring 2016 Version - Social Functioning Past Month", "submissionValue": "CAP01-Social Functioning Past Month", "synonyms": ["CAP01-Social Functioning Past Month"]}, {"conceptId": "C187591", "definition": "Clinician-Administered PTSD Scale (Current) DSM-5 With DSM IV Scoring 2016 Version - DSM-5 Scoring and/or DSM IV Score: Subjective distress: Lifetime.", "preferredTerm": "CAPS DSM-5 With DSM IV Scoring 2016 Version - Subjective Distress Lifetime", "submissionValue": "CAP01-Subjective Distress Lifetime", "synonyms": ["CAP01-Subjective Distress Lifetime"]}, {"conceptId": "C187590", "definition": "Clinician-Administered PTSD Scale (Current) DSM-5 With DSM IV Scoring 2016 Version - DSM-5 Scoring and/or DSM IV Score: Subjective distress: In the past month.", "preferredTerm": "CAPS DSM-5 With DSM IV Scoring 2016 Version - Subjective Distress Past Month", "submissionValue": "CAP01-Subjective Distress Past Month", "synonyms": ["CAP01-Subjective Distress Past Month"]}, {"conceptId": "C187586", "definition": "Clinician-Administered PTSD Scale (Current) DSM-5 With DSM IV Scoring 2016 Version - DSM-5 Scoring and/or DSM IV Score: Duration of symptoms: [CURRENT] Total # months duration.", "preferredTerm": "CAPS DSM-5 With DSM IV Scoring 2016 Version - Symptoms Current Months Duration", "submissionValue": "CAP01-Symptoms Current Months Duration", "synonyms": ["CAP01-Symptoms Current Months Duration"]}, {"conceptId": "C187587", "definition": "Clinician-Administered PTSD Scale (Current) DSM-5 With DSM IV Scoring 2016 Version - DSM-5 Scoring and/or DSM IV Score: Duration of symptoms: [CURRENT] Duration more than 1 month?", "preferredTerm": "CAPS DSM-5 With DSM IV Scoring 2016 Version - Symptoms Current More Than Month", "submissionValue": "CAP01-Symptoms Current More Than Month", "synonyms": ["CAP01-Symptoms Current More Than Month"]}, {"conceptId": "C187588", "definition": "Clinician-Administered PTSD Scale (Current) DSM-5 With DSM IV Scoring 2016 Version - DSM-5 Scoring and/or DSM IV Score: Duration of symptoms: [LIFETIME] Total # months duration.", "preferredTerm": "CAPS DSM-5 With DSM IV Scoring 2016 Version - Symptoms Lifetime Months Duration", "submissionValue": "CAP01-Symptoms Lifetime Months Duration", "synonyms": ["CAP01-Symptoms Lifetime Months Duration"]}, {"conceptId": "C187589", "definition": "Clinician-Administered PTSD Scale (Current) DSM-5 With DSM IV Scoring 2016 Version - DSM-5 Scoring and/or DSM IV Score: Duration of symptoms: [LIFETIME] Duration more than 1 month?", "preferredTerm": "CAPS DSM-5 With DSM IV Scoring 2016 Version - Symptoms Lifetime More Than Month", "submissionValue": "CAP01-Symptoms Lifetime More Than Month", "synonyms": ["CAP01-Symptoms Lifetime More Than Month"]}, {"conceptId": "C187584", "definition": "Clinician-Administered PTSD Scale (Current) DSM-5 With DSM IV Scoring 2016 Version - DSM-5 Scoring and/or DSM IV Score: Onset of symptoms: Total # months delay in onset.", "preferredTerm": "CAPS DSM-5 With DSM IV Scoring 2016 Version - Symptoms Total Months Delay Onset", "submissionValue": "CAP01-Symptoms Total Months Delay Onset", "synonyms": ["CAP01-Symptoms Total Months Delay Onset"]}, {"conceptId": "C187585", "definition": "Clinician-Administered PTSD Scale (Current) DSM-5 With DSM IV Scoring 2016 Version - DSM-5 Scoring and/or DSM IV Score: Onset of symptoms: With delayed onset (>= 6 months)?", "preferredTerm": "CAPS DSM-5 With DSM IV Scoring 2016 Version - Symptoms With Delayed Onset", "submissionValue": "CAP01-Symptoms With Delayed Onset", "synonyms": ["CAP01-Symptoms With Delayed Onset"]}, {"conceptId": "C187518", "definition": "Clinician-Administered PTSD Scale (Current) DSM-5 With DSM IV Scoring 2016 Version - The event you have recently endured was: Index event (specify).", "preferredTerm": "CAPS DSM-5 With DSM IV Scoring 2016 Version - The Event You Recently Endured", "submissionValue": "CAP01-The Event You Recently Endured", "synonyms": ["CAP01-The Event You Recently Endured"]}]}