{"_links": {"parentPackage": {"href": "/mdr/ct/packages/sdtmct-2022-09-30", "title": "SDTM Controlled Terminology Package 51 Effective 2022-09-30", "type": "Terminology"}, "rootItem": {"href": "/mdr/root/ct/sdtmct/codelists/C189265", "title": "Version-agnostic anchor resource for codelist C189265", "type": "Root Value Domain"}, "self": {"href": "/mdr/ct/packages/sdtmct-2022-09-30/codelists/C189265", "title": "CDISC SDTM Accountable Party Terminology", "type": "Code List"}}, "conceptId": "C189265", "definition": "Terminology relevant to the role of the individual or entity responsible for the receipt of the transferred object (e.g., device, specimen).", "extensible": "true", "name": "Accountable Party", "preferredTerm": "CDISC SDTM Accountable Party Terminology", "submissionValue": "ACCPARTY", "synonyms": ["Accountable Party"], "terms": [{"conceptId": "C165460", "definition": "A person or group that facilitates the exchange of items or information.", "preferredTerm": "Courier", "submissionValue": "COURIER"}, {"conceptId": "C37984", "definition": "An organization with the capability and competency to perform scientific research, experiments, and measurements. (BRIDG)", "preferredTerm": "Laboratory", "submissionValue": "LABORATORY"}, {"conceptId": "C25392", "definition": "The organization defined as being responsible for creating the product as stated on the package in which the product is supplied. (BRIDG)", "preferredTerm": "Manufacturer", "submissionValue": "MANUFACTURER", "synonyms": ["Manufacturer"]}, {"conceptId": "C70793", "definition": "An entity that is responsible for the initiation, management, and/or financing of a clinical study.", "preferredTerm": "Clinical Study Sponsor", "submissionValue": "SPONSOR", "synonyms": ["Clinical Study Sponsor", "Sponsor", "Study Sponsor"]}, {"conceptId": "C189365", "definition": "The organization that manages the storage of items.", "preferredTerm": "Storage Facility", "submissionValue": "STORAGE FACILITY"}, {"conceptId": "C41189", "definition": "An individual who is observed, analyzed, examined, investigated, experimented upon, or/and treated in the course of a particular study.", "preferredTerm": "Study Subject", "submissionValue": "SUBJECT"}]}