{"_links": {"parentPackage": {"href": "/mdr/ct/packages/sdtmct-2022-09-30", "title": "SDTM Controlled Terminology Package 51 Effective 2022-09-30", "type": "Terminology"}, "rootItem": {"href": "/mdr/root/ct/sdtmct/codelists/C189689", "title": "Version-agnostic anchor resource for codelist C189689", "type": "Root Value Domain"}, "self": {"href": "/mdr/ct/packages/sdtmct-2022-09-30/codelists/C189689", "title": "CDISC Clinical Classification Brief Psychiatric Rating Scale-Anchored BPRSA1SET1 Original Response Terminology", "type": "Code List"}}, "conceptId": "C189689", "definition": "Brief Psychiatric Rating Scale-Anchored original result for BPRSA101, BPRSA102, BPRSA105, BPRSA108, BPRSA109, BPRSA110, BPRSA111, BPRSA112, and BPRSA115 test and test code.", "extensible": "false", "name": "Brief Psychiatric Rating Scale-Anchored Clinical Classification ORRES the Same as BPRSA101 TN/TC", "preferredTerm": "CDISC Clinical Classification Brief Psychiatric Rating Scale-Anchored BPRSA1SET1 Original Response Terminology", "submissionValue": "BPRSA1SET1OR", "synonyms": ["Brief Psychiatric Rating Scale-Anchored Clinical Classification ORRES the Same as BPRSA101 TN/TC"], "terms": [{"conceptId": "C189710", "definition": "Brief Psychiatric Rating Scale-Anchored original result for BPRSA101, BPRSA102, BPRSA105, BPRSA108, BPRSA109, BPRSA110, BPRSA111, BPRSA112, and BPRSA115-Cannot be assessed adequately because of severe formal thought disorder, uncooperativeness, or marked evasiveness/guardedness; or not assessed.", "preferredTerm": "Brief Psychiatric Rating Scale-Anchored BPRSA1SET1 Original Result - Cannot be Assessed Adequately Because of Severe Formal Thought Disorder, Uncooperativeness, or Marked Evasiveness/Guardedness; or Not Assessed", "submissionValue": "Cannot be assessed adequately because of severe formal thought disorder, uncooperativeness, or marked evasiveness/guardedness; or Not assessed", "synonyms": ["BPRSA1SET1-Cannot be assessed adequately because of severe formal thought disorder, uncooperativeness, or marked evasiveness/guardedness", "or Not assessed"]}, {"conceptId": "C189705", "definition": "Brief Psychiatric Rating Scale-Anchored original result for BPRSA101, BPRSA102, BPRSA105, BPRSA108, BPRSA109, BPRSA110, BPRSA111, BPRSA112, and BPRSA115-Mild.", "preferredTerm": "Brief Psychiatric Rating Scale-Anchored BPRSA1SET1 Original Result - Mild", "submissionValue": "Mild", "synonyms": ["BPRSA1SET1-Mild"]}, {"conceptId": "C189706", "definition": "Brief Psychiatric Rating Scale-Anchored original result for BPRSA101, BPRSA102, BPRSA105, BPRSA108, BPRSA109, BPRSA110, BPRSA111, BPRSA112, and BPRSA115-Moderate.", "preferredTerm": "Brief Psychiatric Rating Scale-Anchored BPRSA1SET1 Original Result - Moderate", "submissionValue": "Moderate", "synonyms": ["BPRSA1SET1-Moderate"]}, {"conceptId": "C189707", "definition": "Brief Psychiatric Rating Scale-Anchored original result for BPRSA101, BPRSA102, BPRSA105, BPRSA108, BPRSA109, BPRSA110, BPRSA111, BPRSA112, and BPRSA115-Moderately severe.", "preferredTerm": "Brief Psychiatric Rating Scale-Anchored BPRSA1SET1 Original Result - Moderately Severe", "submissionValue": "Moderately Severe", "synonyms": ["BPRSA1SET1-Moderately Severe"]}, {"conceptId": "C189703", "definition": "Brief Psychiatric Rating Scale-Anchored original result for BPRSA101, BPRSA102, BPRSA105, BPRSA108, BPRSA109, BPRSA110, BPRSA111, BPRSA112, and BPRSA115-Not reported.", "preferredTerm": "Brief Psychiatric Rating Scale-Anchored BPRSA1SET1 Original Result - Not Reported", "submissionValue": "Not reported", "synonyms": ["BPRSA1SET1-Not reported"]}, {"conceptId": "C189708", "definition": "Brief Psychiatric Rating Scale-Anchored original result for BPRSA101, BPRSA102, BPRSA105, BPRSA108, BPRSA109, BPRSA110, BPRSA111, BPRSA112, and BPRSA115-Severe.", "preferredTerm": "Brief Psychiatric Rating Scale-Anchored BPRSA1SET1 Original Result - Severe", "submissionValue": "Severe", "synonyms": ["BPRSA1SET1-Severe"]}, {"conceptId": "C189704", "definition": "Brief Psychiatric Rating Scale-Anchored original result for BPRSA101, BPRSA102, BPRSA105, BPRSA108, BPRSA109, BPRSA110, BPRSA111, BPRSA112, and BPRSA115-Very mild.", "preferredTerm": "Brief Psychiatric Rating Scale-Anchored BPRSA1SET1 Original Result - Very Mild", "submissionValue": "Very Mild", "synonyms": ["BPRSA1SET1-Very Mild"]}, {"conceptId": "C189709", "definition": "Brief Psychiatric Rating Scale-Anchored original result for BPRSA101 and items with equivalent response set-Very severe.", "preferredTerm": "Brief Psychiatric Rating Scale-Anchored BPRSA1SET1 Original Result - Very Severe", "submissionValue": "Very Severe", "synonyms": ["BPRSA1SET1-Very Severe"]}]}