{"_links": {"parentPackage": {"href": "/mdr/ct/packages/sdtmct-2022-09-30", "title": "SDTM Controlled Terminology Package 51 Effective 2022-09-30", "type": "Terminology"}, "rootItem": {"href": "/mdr/root/ct/sdtmct/codelists/C189267", "title": "Version-agnostic anchor resource for codelist C189267", "type": "Root Value Domain"}, "self": {"href": "/mdr/ct/packages/sdtmct-2022-09-30/codelists/C189267", "title": "CDISC SDTM Immunogenicity Specimen Test Details Terminology", "type": "Code List"}}, "conceptId": "C189267", "definition": "Terminology relevant to the additional descriptions of the test being performed to produce the immunogenicity specimen test findings.", "extensible": "true", "name": "Immunogenicity Specimen Test Details", "preferredTerm": "CDISC SDTM Immunogenicity Specimen Test Details Terminology", "submissionValue": "ISFTSDTL", "synonyms": ["Immunogenicity Specimen Test Details"], "terms": [{"conceptId": "C189493", "definition": "A score system used to evaluate the severity of allergy by measuring the amount of circulating allergen-specific antibody, using the radioallergosorbent test.", "preferredTerm": "RAST Score", "submissionValue": "RAST SCORE", "synonyms": ["RAST Class", "RAST Rating"]}, {"conceptId": "C189492", "definition": "A determination of the distribution pattern of a stained entity.", "preferredTerm": "Staining Distribution Pattern", "submissionValue": "STAINING PATTERN"}]}