{"_links": {"parentPackage": {"href": "/mdr/ct/packages/sdtmct-2022-09-30", "title": "SDTM Controlled Terminology Package 51 Effective 2022-09-30", "type": "Terminology"}, "priorVersion": {"href": "/mdr/ct/packages/sdtmct-2022-06-24/codelists/C78732", "title": "CDISC SDTM Drug Accountability Test Code Terminology", "type": "Code List"}, "rootItem": {"href": "/mdr/root/ct/sdtmct/codelists/C78732", "title": "Version-agnostic anchor resource for codelist C78732", "type": "Root Value Domain"}, "self": {"href": "/mdr/ct/packages/sdtmct-2022-09-30/codelists/C78732", "title": "CDISC SDTM Drug Accountability Test Code Terminology", "type": "Code List"}}, "conceptId": "C78732", "definition": "The short name, or code, of the test for the drug accountability assessment.", "extensible": "true", "name": "Drug Accountability Test Code", "preferredTerm": "CDISC SDTM Drug Accountability Test Code Terminology", "submissionValue": "DATESTCD", "synonyms": ["Drug Accountability Test Code"], "terms": [{"conceptId": "C78721", "definition": "The quantity of a product that has been dispensed. (NCI)", "preferredTerm": "Dispensed Amount", "submissionValue": "DISPAMT", "synonyms": ["Dispensed Amount"]}, {"conceptId": "C189430", "definition": "The quantity of a product reported as lost.", "preferredTerm": "Lost Amount", "submissionValue": "LOSTAMT", "synonyms": ["Lost Amount"]}, {"conceptId": "C170562", "definition": "The quantity of a product that has been made ready for use.", "preferredTerm": "Prepared Amount", "submissionValue": "PREPAMT", "synonyms": ["Prepared Amount"]}, {"conceptId": "C170563", "definition": "The quantity of a product that remains after dosing, consumption, or use.", "preferredTerm": "Remaining Amount", "submissionValue": "REMAMT", "synonyms": ["Remaining Amount"]}, {"conceptId": "C78722", "definition": "The quantity of a product that has been returned. (NCI)", "preferredTerm": "Returned Amount", "submissionValue": "RETAMT", "synonyms": ["Returned Amount"]}]}