{"_links": {"parentPackage": {"href": "/mdr/ct/packages/sdtmct-2022-09-30", "title": "SDTM Controlled Terminology Package 51 Effective 2022-09-30", "type": "Terminology"}, "priorVersion": {"href": "/mdr/ct/packages/sdtmct-2022-06-24/codelists/C85491", "title": "CDISC SDTM Microorganism Terminology", "type": "Code List"}, "rootItem": {"href": "/mdr/root/ct/sdtmct/codelists/C85491", "title": "Version-agnostic anchor resource for codelist C85491", "type": "Root Value Domain"}, "self": {"href": "/mdr/ct/packages/sdtmct-2022-09-30/codelists/C85491", "title": "CDISC SDTM Microorganism Terminology", "type": "Code List"}}, "conceptId": "C85491", "definition": "Microorganisms, bacteria, fungi and other organisms.", "extensible": "true", "name": "Microorganism", "preferredTerm": "CDISC SDTM Microorganism Terminology", "submissionValue": "MICROORG", "synonyms": ["Microorganism"], "terms": [{"conceptId": "C86078", "definition": "Any bacterial organism that can be assigned to the species Abiotrophia defectiva.", "preferredTerm": "Abiotrophia defectiva", "submissionValue": "ABIOTROPHIA DEFECTIVA"}, {"conceptId": "C86077", "definition": "Any bacteria that is not assigned to the species level but can be assigned to the Abiotrophia genus level.", "preferredTerm": "Abiotrophia", "submissionValue": "ABIOTROPHIA"}, {"conceptId": "C119580", "definition": "Any fungal organism that is not assigned to the species level but can be assigned to the Absidia genus level.", "preferredTerm": "Absidia", "submissionValue": "ABSIDIA"}, {"conceptId": "C119297", "definition": "Any amoebic organism that can be assigned to the species Acanthamoeba astronyxis.", "preferredTerm": "Acanthamoeba astronyxis", "submissionValue": "ACANTHAMOEBA ASTRONYXIS"}, {"conceptId": "C119298", "definition": "Any amoebic organism that can be assigned to the species Acanthamoeba castellanii.", "preferredTerm": "Acanthamoeba castellanii", "submissionValue": "ACANTHAMOEBA CASTELLANII"}, {"conceptId": "C119299", "definition": "Any amoebic organism that can be assigned to the species Acanthamoeba culbertsoni.", "preferredTerm": "Acanthamoeba culbertsoni", "submissionValue": "ACANTHAMOEBA CULBERTSONI"}, {"conceptId": "C119300", "definition": "Any amoebic organism that can be assigned to the species Acanthamoeba griffini.", "preferredTerm": "Acanthamoeba griffini", "submissionValue": "ACANTHAMOEBA GRIFFINI"}, {"conceptId": "C119301", "definition": "Any amoebic organism that can be assigned to the species Acanthamoeba hatchetti.", "preferredTerm": "Acanthamoeba hatchetti", "submissionValue": "ACANTHAMOEBA HATCHETTI"}, {"conceptId": "C119302", "definition": "Any amoebic organism that can be assigned to the species Acanthamoeba lugdunensis.", "preferredTerm": "Acanthamoeba lugdunensis", "submissionValue": "ACANTHAMOEBA LUGDUNENSIS"}, {"conceptId": "C119303", "definition": "Any amoebic organism that can be assigned to the species Acanthamoeba palestinensis.", "preferredTerm": "Acanthamoeba palestinensis", "submissionValue": "ACANTHAMOEBA PALESTINENSIS"}, {"conceptId": "C119304", "definition": "Any amoebic organism that can be assigned to the species Acanthamoeba polyphaga.", "preferredTerm": "Acanthamoeba polyphaga", "submissionValue": "ACANTHAMOEBA POLYPHAGA"}, {"conceptId": "C119305", "definition": "Any amoebic organism that can be assigned to the species Acanthamoeba quina.", "preferredTerm": "Acanthamoeba quina", "submissionValue": "ACANTHAMOEBA QUINA"}, {"conceptId": "C119306", "definition": "Any amoebic organism that can be assigned to the species Acanthamoeba rhysodes.", "preferredTerm": "Acanthamoeba rhysodes", "submissionValue": "ACANTHAMOEBA RHYSODES"}, {"conceptId": "C118934", "definition": "Any amoebic organism that is not assigned to the species level but can be assigned to the Acanthamoeba genus level.", "preferredTerm": "Acanthamoeba", "submissionValue": "ACANTHAMOEBA"}, {"conceptId": "C86080", "definition": "Any bacterial organism that can be assigned to the species Achromobacter denitrificans.", "preferredTerm": "Achromobacter denitrificans", "submissionValue": "ACHROMOBACTER DENITRIFICANS", "synonyms": ["Alcaligenes denitrificans"]}, {"conceptId": "C86081", "definition": "Any bacterial organism that can be assigned to the species Achromobacter piechaudii.", "preferredTerm": "Achromobacter piechaudii", "submissionValue": "ACHROMOBACTER PIECHAUDII"}, {"conceptId": "C119307", "definition": "Any bacterial organism that can be assigned to the species Achromobacter ruhlandii.", "preferredTerm": "Achromobacter ruhlandii", "submissionValue": "ACHROMOBACTER RUHLANDII", "synonyms": ["Alcaligenes ruhlandii", "Hydrogenomonas ruhlandii", "Pseudomonas ruhlandii"]}, {"conceptId": "C86082", "definition": "Any bacterial organism that can be assigned to the species Achromobacter xylosoxidans.", "preferredTerm": "Achromobacter xylosoxidans", "submissionValue": "ACHROMOBACTER XYLOSOXIDANS", "synonyms": ["Alcaligenes xylosoxidans"]}, {"conceptId": "C86079", "definition": "Any bacteria that is not assigned to the species level but can be assigned to the Achromobacter genus level.", "preferredTerm": "Achromobacter", "submissionValue": "ACHROMOBACTER"}, {"conceptId": "C184694", "definition": "Any rod-shaped bacteria with the characteristic of acid fastness that resists decolorization by acids during staining.", "preferredTerm": "Acid-fast Bacillus", "submissionValue": "ACID-FAST BACILLUS"}, {"conceptId": "C86084", "definition": "Any bacterial organism that can be assigned to the species Acidaminococcus fermentans.", "preferredTerm": "Acidaminococcus fermentans", "submissionValue": "ACIDAMINOCOCCUS FERMENTANS"}, {"conceptId": "C127680", "definition": "Any bacterial organism that can be assigned to the species Acidaminococcus intestini.", "preferredTerm": "Acidaminococcus intestini", "submissionValue": "ACIDAMINOCOCCUS INTESTINI"}, {"conceptId": "C86083", "definition": "Any bacteria that is not assigned to the species level but can be assigned to the Acidaminococcus genus level.", "preferredTerm": "Acidaminococcus", "submissionValue": "ACIDAMINOCOCCUS"}, {"conceptId": "C86086", "definition": "Any bacterial organism that can be assigned to the species Acidovorax delafieldii.", "preferredTerm": "Acidovorax delafieldii", "submissionValue": "ACIDOVORAX DELAFIELDII"}, {"conceptId": "C86087", "definition": "Any bacterial organism that can be assigned to the species Acidovorax facilis.", "preferredTerm": "Acidovorax facilis", "submissionValue": "ACIDOVORAX FACILIS"}, {"conceptId": "C86088", "definition": "Any bacterial organism that can be assigned to the species Acidovorax temperans.", "preferredTerm": "Acidovorax temperans", "submissionValue": "ACIDOVORAX TEMPERANS"}, {"conceptId": "C86085", "definition": "Any bacteria that is not assigned to the species level but can be assigned to the Acidovorax genus level.", "preferredTerm": "Acidovorax", "submissionValue": "ACIDOVORAX"}, {"conceptId": "C86089", "definition": "Any bacterial organism that can be assigned to the species Acinetobacter anitratus.", "preferredTerm": "Acinetobacter anitratus", "submissionValue": "ACINETOBACTER ANITRATUS", "synonyms": ["Acinetobacter baumannii", "Acinetobacter calcoaceticus subsp. anitratus"]}, {"conceptId": "C86090", "definition": "Any bacterial organism that can be assigned to the species Acinetobacter calcoaceticus.", "preferredTerm": "Acinetobacter calcoaceticus", "submissionValue": "ACINETOBACTER CALCOACETICUS"}, {"conceptId": "C86091", "definition": "A non-taxonomic grouping of bacterial species that are phenotypically or genetically similar to the Acinetobacter calcoaceticus and Acinetobacter baumannii species.", "preferredTerm": "Acinetobacter calcoaceticus/baumannii Complex", "submissionValue": "ACINETOBACTER CALCOACETICUS-BAUMANNII COMPLEX"}, {"conceptId": "C86092", "definition": "Any bacterial organism that can be assigned to the species Acinetobacter haemolyticus.", "preferredTerm": "Acinetobacter haemolyticus", "submissionValue": "ACINETOBACTER HAEMOLYTICUS"}, {"conceptId": "C86093", "definition": "Any bacterial organism that can be assigned to the species Acinetobacter johnsonii.", "preferredTerm": "Acinetobacter johnsonii", "submissionValue": "ACINETOBACTER JOHNSONII"}, {"conceptId": "C86094", "definition": "Any bacterial organism that can be assigned to the species Acinetobacter junii.", "preferredTerm": "Acinetobacter junii", "submissionValue": "ACINETOBACTER JUNII"}, {"conceptId": "C86095", "definition": "Any bacterial organism that can be assigned to the species Acinetobacter lwoffii.", "preferredTerm": "Acinetobacter lwoffii", "submissionValue": "ACINETOBACTER LWOFFII", "synonyms": ["Acinetobacter calcoaceticus subsp. lwoffii"]}, {"conceptId": "C119308", "definition": "Any bacterial organism that can be assigned to the species Acinetobacter parvus.", "preferredTerm": "Acinetobacter parvus", "submissionValue": "ACINETOBACTER PARVUS", "synonyms": ["Acinetobacter sp. phenon 4"]}, {"conceptId": "C184693", "definition": "Any bacterial organism that can be assigned to the species Acinetobacter pittii.", "preferredTerm": "Acinetobacter pittii", "submissionValue": "ACINETOBACTER PITTII", "synonyms": ["Acinetobacter genomosp. 3", "g-proteobacteria"]}, {"conceptId": "C86096", "definition": "Any bacterial organism that can be assigned to the species Acinetobacter radioresistens.", "preferredTerm": "Acinetobacter radioresistens", "submissionValue": "ACINETOBACTER RADIORESISTENS"}, {"conceptId": "C119309", "definition": "Any bacterial organism that can be assigned to the species Acinetobacter ursingii.", "preferredTerm": "Acinetobacter ursingii", "submissionValue": "ACINETOBACTER URSINGII", "synonyms": ["Acinetobacter sp. phenon 1"]}, {"conceptId": "C76200", "definition": "Any bacteria that is not assigned to the species level but can be assigned to the Acinetobacter genus level.", "preferredTerm": "Acinetobacter", "submissionValue": "ACINETOBACTER"}, {"conceptId": "C119310", "definition": "Any fungal organism that can be assigned to the species Acremonium atrogriseum.", "preferredTerm": "Acremonium atrogriseum", "submissionValue": "ACREMONIUM ATROGRISEUM", "synonyms": ["Gliomastix atrogriseum", "Phaeoscopulariopsis atrogrisea"]}, {"conceptId": "C118935", "definition": "Any fungal organism that is not assigned to the species level but can be assigned to the Acremonium genus level.", "preferredTerm": "Acremonium", "submissionValue": "ACREMONIUM"}, {"conceptId": "C86098", "definition": "Any bacterial organism that can be assigned to the species Actinobacillus actinomycetemcomitans.", "preferredTerm": "Actinobacillus actinomycetemcomitans", "submissionValue": "ACTINOBACILLUS ACTINOMYCETEMCOMITANS"}, {"conceptId": "C86099", "definition": "Any bacterial organism that can be assigned to the species Actinobacillus equuli.", "preferredTerm": "Actinobacillus equuli", "submissionValue": "ACTINOBACILLUS EQUULI"}, {"conceptId": "C86100", "definition": "Any bacterial organism that can be assigned to the species Actinobacillus ligniersii.", "preferredTerm": "Actinobacillus lignieresii", "submissionValue": "ACTINOBACILLUS LIGNIERESII"}, {"conceptId": "C86101", "definition": "Any bacterial organism that can be assigned to the species Actinobacillus pleuropneumoniae.", "preferredTerm": "Actinobacillus pleuropneumoniae", "submissionValue": "ACTINOBACILLUS PLEUROPNEUMONIAE", "synonyms": ["Haemophilus pleuropneumoniae"]}, {"conceptId": "C86102", "definition": "Any bacterial organism that can be assigned to the species Actinobacillus suis.", "preferredTerm": "Actinobacillus suis", "submissionValue": "ACTINOBACILLUS SUIS"}, {"conceptId": "C86103", "definition": "Any bacterial organism that can be assigned to the species Actinobacillus ureae.", "preferredTerm": "Actinobacillus ureae", "submissionValue": "ACTINOBACILLUS UREAE", "synonyms": ["Pasteurella ureae"]}, {"conceptId": "C86097", "definition": "Any bacteria that is not assigned to the species level but can be assigned to the Actinobacillus genus level.", "preferredTerm": "Actinobacillus", "submissionValue": "ACTINOBACILLUS"}, {"conceptId": "C119311", "definition": "Any bacterial organism that can be assigned to the species Actinobaculum schaalii.", "preferredTerm": "Actinobaculum schaalii", "submissionValue": "ACTINOBACULUM SCHAALII"}, {"conceptId": "C86105", "definition": "Any bacterial organism that can be assigned to the species Actinomadura madurae.", "preferredTerm": "Actinomadura madurae", "submissionValue": "ACTINOMADURA MADURAE"}, {"conceptId": "C86106", "definition": "Any bacterial organism that can be assigned to the species Actinomadura pelletieri.", "preferredTerm": "Actinomadura pelletieri", "submissionValue": "ACTINOMADURA PELLETIERI"}, {"conceptId": "C86104", "definition": "Any bacteria that is not assigned to the species level but can be assigned to the Actinomadura genus level.", "preferredTerm": "Actinomadura", "submissionValue": "ACTINOMADURA"}, {"conceptId": "C86107", "definition": "Any bacterial organism that can be assigned to the species Actinomyces bovis.", "preferredTerm": "Actinomyces bovis", "submissionValue": "ACTINOMYCES BOVIS", "synonyms": ["Actinocladothrix bovis", "Cladothrix bovis", "Discomyces bovis", "Nocardia bovis", "Oospora bovis", "Proactinomyces bovis", "Sarcomyces bovis", "Sphaerotilus bovis", "Streptothrix bovis"]}, {"conceptId": "C119312", "definition": "Any bacterial organism that can be assigned to the species Actinomyces europaeus.", "preferredTerm": "Actinomyces europaeus", "submissionValue": "ACTINOMYCES EUROPAEUS"}, {"conceptId": "C86108", "definition": "Any bacterial organism that can be assigned to the species Actinomyces israelii.", "preferredTerm": "Actinomyces israelii", "submissionValue": "ACTINOMYCES ISRAELII"}, {"conceptId": "C86109", "definition": "Any bacterial organism that can be assigned to the species Actinomyces meyerii.", "preferredTerm": "Actinomyces meyerii", "submissionValue": "ACTINOMYCES MEYERII"}, {"conceptId": "C86110", "definition": "Any bacterial organism that can be assigned to the species Actinomyces naseslundii.", "preferredTerm": "Actinomyces naeslundii", "submissionValue": "ACTINOMYCES NAESLUNDII"}, {"conceptId": "C119313", "definition": "Any bacterial organism that can be assigned to the species Actinomyces neuii subspecies neuii.", "preferredTerm": "Actinomyces neuii Subspecies neuii", "submissionValue": "ACTINOMYCES NEUII SUBSP. NEUII", "synonyms": ["CDC coryneform group 1"]}, {"conceptId": "C86111", "definition": "Any bacterial organism that can be assigned to the species Actinomyces neuii.", "preferredTerm": "Actinomyces neuii", "submissionValue": "ACTINOMYCES NEUII"}, {"conceptId": "C86112", "definition": "Any bacterial organism that can be assigned to the species Actinomyces odontolyticus.", "preferredTerm": "Actinomyces odontolyticus", "submissionValue": "ACTINOMYCES ODONTOLYTICUS"}, {"conceptId": "C86113", "definition": "Any bacterial organism that can be assigned to the species Actinomyces radingae.", "preferredTerm": "Actinomyces radingae", "submissionValue": "ACTINOMYCES RADINGAE"}, {"conceptId": "C86114", "definition": "Any bacterial organism that can be assigned to the species Actinomyces turicensis.", "preferredTerm": "Actinomyces turicensis", "submissionValue": "ACTINOMYCES TURICENSIS"}, {"conceptId": "C86115", "definition": "Any bacterial organism that can be assigned to the species Actinomyces viscosus.", "preferredTerm": "Actinomyces viscosus", "submissionValue": "ACTINOMYCES VISCOSUS"}, {"conceptId": "C76201", "definition": "Any bacteria that is not assigned to the species level but can be assigned to the Actinomyces genus level.", "preferredTerm": "Actinomyces", "submissionValue": "ACTINOMYCES"}, {"conceptId": "C14179", "definition": "Any viral organism that can be assigned to the family Adenoviridae.", "preferredTerm": "Adenoviridae", "submissionValue": "ADENOVIRIDAE", "synonyms": ["Adenovirus", "ADV"]}, {"conceptId": "C187901", "definition": "Any bacterial organism that can be assigned to the species Escherichia coli, and is considered as the pathotype adherent invasive. AIEC causes Crohn's disease and inflammatory bowel disease.", "preferredTerm": "Adherent Invasive Escherichia coli", "submissionValue": "ADHERENT INVASIVE ESCHERICHIA COLI", "synonyms": ["Adherent Invasive E. coli", "AIEC"]}, {"conceptId": "C86116", "definition": "Any rod-shaped bacteria with an oxygen-based metabolism and has a cell wall that contains low levels of peptidoglycan and stains pink with the Gram staining technique.", "preferredTerm": "Aerobic Gram Negative Bacillus", "submissionValue": "AEROBIC GRAM-NEGATIVE BACILLUS", "synonyms": ["Aerobic Gram-negative Rod"]}, {"conceptId": "C125954", "definition": "Any bacterial organism with an oxygen-based metabolism, and is intermediate in morphology between a spherical-shaped coccus and a rod-shaped bacillus that contains low levels of peptidoglycan in its cell wall and stains pink with the Gram staining technique.", "preferredTerm": "Aerobic Gram-Negative Coccobacillus", "submissionValue": "AEROBIC GRAM-NEGATIVE COCCOBACILLUS"}, {"conceptId": "C86117", "definition": "Any spherical-shaped bacteria with an oxygen-based metabolism and a cell wall that contains low levels of peptidoglycan and stains pink with the Gram staining technique.", "preferredTerm": "Aerobic Gram Negative Coccus", "submissionValue": "AEROBIC GRAM-NEGATIVE COCCUS"}, {"conceptId": "C86118", "definition": "Any rod-shaped bacteria with an oxygen-based metabolism and has a peptidoglycan-rich cell wall that stains dark purple with the Gram staining technique.", "preferredTerm": "Aerobic Gram Positive Bacillus", "submissionValue": "AEROBIC GRAM-POSITIVE BACILLUS", "synonyms": ["Aerobic Gram-positive Rod"]}, {"conceptId": "C86119", "definition": "Any spherical-shaped bacteria with an oxygen-based metabolism and a peptidoglycan-rich cell wall that stains dark purple with the Gram staining technique.", "preferredTerm": "Aerobic Gram Positive Coccus", "submissionValue": "AEROBIC GRAM-POSITIVE COCCUS"}, {"conceptId": "C86120", "definition": "Any bacteria assigned to the genus Streptococcus that requires oxygen to grow or respirate.", "preferredTerm": "Aerobic Streptococcus", "submissionValue": "AEROBIC STREPTOCOCCUS"}, {"conceptId": "C85913", "definition": "Any bacteria that are not assigned to the species level but can be assigned to the Aerococcaceae family level.", "preferredTerm": "Aerococcaceae", "submissionValue": "AEROCOCCACEAE"}, {"conceptId": "C119314", "definition": "Any bacterial organism that can be assigned to the species Aerococcus sanguinicola.", "preferredTerm": "Aerococcus sanguinicola", "submissionValue": "AEROCOCCUS SANGUINICOLA"}, {"conceptId": "C86122", "definition": "Any bacterial organism that can be assigned to the species Aerococcus urinae.", "preferredTerm": "Aerococcus urinae", "submissionValue": "AEROCOCCUS URINAE"}, {"conceptId": "C86123", "definition": "Any bacterial organism that can be assigned to the species Aerococcus viridans.", "preferredTerm": "Aerococcus viridans", "submissionValue": "AEROCOCCUS VIRIDANS"}, {"conceptId": "C86121", "definition": "Any bacteria that is not assigned to the species level but can be assigned to the Aerococcus genus level.", "preferredTerm": "Aerococcus", "submissionValue": "AEROCOCCUS"}, {"conceptId": "C86125", "definition": "Any bacterial organism that can be assigned to the species Aeromonas hydrophila.", "preferredTerm": "Aeromonas hydrophila", "submissionValue": "AEROMONAS HYDROPHILA"}, {"conceptId": "C86126", "definition": "Any bacterial organism that can be assigned to the species Aeromonas jandaei.", "preferredTerm": "Aeromonas jandaei", "submissionValue": "AEROMONAS JANDAEI"}, {"conceptId": "C86127", "definition": "Any bacterial organism that can be assigned to the species Aeromonas punctata.", "preferredTerm": "Aeromonas punctata", "submissionValue": "AEROMONAS PUNCTATA", "synonyms": ["Aeromonas caviae"]}, {"conceptId": "C86128", "definition": "Any bacterial organism that can be assigned to the species Aeromonas salmonicida.", "preferredTerm": "Aeromonas salmonicida", "submissionValue": "AEROMONAS SALMONICIDA"}, {"conceptId": "C86129", "definition": "Any bacterial organism that can be assigned to the species Aeromonas schubertii.", "preferredTerm": "Aeromonas schubertii", "submissionValue": "AEROMONAS SCHUBERTII"}, {"conceptId": "C86130", "definition": "Any bacterial organism that can be assigned to the species Aeromonas sobria.", "preferredTerm": "Aeromonas sobria", "submissionValue": "AEROMONAS SOBRIA"}, {"conceptId": "C86131", "definition": "Any bacterial organism that can be assigned to the species Aeromonas veronii.", "preferredTerm": "Aeromonas veronii", "submissionValue": "AEROMONAS VERONII"}, {"conceptId": "C86124", "definition": "Any bacteria that is not assigned to the species level but can be assigned to the Aeromonas genus level.", "preferredTerm": "Aeromonas", "submissionValue": "AEROMONAS"}, {"conceptId": "C86133", "definition": "Any bacterial organism that can be assigned to the species Aggregatibacter actinomycetemcomitans.", "preferredTerm": "Aggregatibacter actinomycetemcomitans", "submissionValue": "AGGREGATIBACTER ACTINOMYCETEMCOMITANS", "synonyms": ["Haemophilus actinomycetemcomitans"]}, {"conceptId": "C86134", "definition": "Any bacterial organism that can be assigned to the species Aggregatibacter aphrophilus.", "preferredTerm": "Aggregatibacter aphrophilus", "submissionValue": "AGGREGATIBACTER APHROPHILUS", "synonyms": ["Haemophilus aphrophilus", "Haemophilus paraphrophilus"]}, {"conceptId": "C119315", "definition": "Any bacterial organism that can be assigned to the species Aggregatibacter aphrophilus and is beta-lactamase negative.", "preferredTerm": "Aggregatibacter aphrophilus, Beta-lactamase Negative", "submissionValue": "AGGREGATIBACTER APHROPHILUS, BETA-LACTAMASE NEGATIVE", "synonyms": ["Haemophilus aphrophilus, Beta-lactamase Negative"]}, {"conceptId": "C119316", "definition": "Any bacterial organism that can be assigned to the species Aggregatibacter aphrophilus and is beta-lactamase positive.", "preferredTerm": "Aggregatibacter aphrophilus, Beta-lactamase Positive", "submissionValue": "AGGREGATIBACTER APHROPHILUS, BETA-LACTAMASE POSITIVE", "synonyms": ["Haemophilus aphrophilus, Beta-lactamase Positive"]}, {"conceptId": "C119317", "definition": "Any bacterial organism that can be assigned to the species Aggregatibacter aphrophilus and is penicillinase negative.", "preferredTerm": "Aggregatibacter aphrophilus, Penicillinase Negative", "submissionValue": "AGGREGATIBACTER APHROPHILUS, PENICILLINASE NEGATIVE", "synonyms": ["Haemophilus aphrophilus, Penicillinase Negative"]}, {"conceptId": "C119318", "definition": "Any bacterial organism that can be assigned to the species Aggregatibacter aphrophilus and is penicillinase positive.", "preferredTerm": "Aggregatibacter aphrophilus, Penicillinase Positive", "submissionValue": "AGGREGATIBACTER APHROPHILUS, PENICILLINASE POSITIVE", "synonyms": ["Haemophilus aphrophilus, Penicillinase Positive"]}, {"conceptId": "C86135", "definition": "Any bacterial organism that can be assigned to the species Aggregatibacter segnis.", "preferredTerm": "Aggregatibacter segnis", "submissionValue": "AGGREGATIBACTER SEGNIS", "synonyms": ["Haemophilus segnis"]}, {"conceptId": "C86132", "definition": "Any bacteria that is not assigned to the species level but can be assigned to the Aggregatibacter genus level.", "preferredTerm": "Aggregatibacter", "submissionValue": "AGGREGATIBACTER"}, {"conceptId": "C86137", "definition": "Any bacterial organism that can be assigned to the species Agrobacterium radiobacter.", "preferredTerm": "Agrobacterium radiobacter", "submissionValue": "AGROBACTERIUM RADIOBACTER"}, {"conceptId": "C86138", "definition": "Any bacterial organism that can be assigned to the species Agrobacterium tumefaciens.", "preferredTerm": "Agrobacterium tumefaciens", "submissionValue": "AGROBACTERIUM TUMEFACIENS", "synonyms": ["Rhizobium radiobacter"]}, {"conceptId": "C86011", "definition": "Any bacteria that is not assigned to the species level but can be assigned to the Agrobacterium genus level.", "preferredTerm": "Agrobacterium", "submissionValue": "AGROBACTERIUM"}, {"conceptId": "C77186", "definition": "Any fungal organism that can be assigned to the species Ajellomyces capsulatus.", "preferredTerm": "Ajellomyces capsulatus", "submissionValue": "AJELLOMYCES CAPSULATUS"}, {"conceptId": "C85914", "definition": "Any bacteria that are not assigned to the species level but can be assigned to the Alcaligenaceae family level.", "preferredTerm": "Alcaligenaceae", "submissionValue": "ALCALIGENACEAE"}, {"conceptId": "C86140", "definition": "Any bacterial organism that can be assigned to the species Alcaligenes faecalis.", "preferredTerm": "Alcaligenes faecalis", "submissionValue": "ALCALIGENES FAECALIS", "synonyms": ["Alcaligenes odorans"]}, {"conceptId": "C86012", "definition": "Any bacteria that is not assigned to the species level but can be assigned to the Alcaligenes genus level.", "preferredTerm": "Alcaligenes", "submissionValue": "ALCALIGENES"}, {"conceptId": "C86871", "definition": "Any bacterial organism that can be assigned to the species Alistipes putredinis.", "preferredTerm": "Alistipes putredinis", "submissionValue": "ALISTIPES PUTREDINIS", "synonyms": ["Bacteroides putredinis"]}, {"conceptId": "C114246", "definition": "Any bacterial organism that can be assigned to the species Alistipes shahii.", "preferredTerm": "Alistipes shahii", "submissionValue": "ALISTIPES SHAHII"}, {"conceptId": "C86870", "definition": "Any bacterial organism that is not assigned to the species level but can be assigned to the Alistipes genus level.", "preferredTerm": "Alistipes", "submissionValue": "ALISTIPES"}, {"conceptId": "C184691", "definition": "Any bacterial organism that can be assigned to the species Alkalihalobacillus clausii.", "preferredTerm": "Alkalihalobacillus clausii", "submissionValue": "ALKALIHALOBACILLUS CLAUSII", "synonyms": ["Bacillus clausii"]}, {"conceptId": "C119319", "definition": "Any viral organism that is not assigned to the species level but can be assigned to the Alphacoronavirus genus level.", "preferredTerm": "Alphacoronavirus", "submissionValue": "ALPHACORONAVIRUS", "synonyms": ["Coronavirus Group 1"]}, {"conceptId": "C112030", "definition": "Any viral organism that can be assigned to the genus Alphavirus.", "preferredTerm": "Alphavirus", "submissionValue": "ALPHAVIRUS", "synonyms": ["Arboviruses Group A"]}, {"conceptId": "C87529", "definition": "Any fungal organism that can be assigned to the species Alternaria alternata.", "preferredTerm": "Alternaria alternata", "submissionValue": "ALTERNARIA ALTERNATA", "synonyms": ["Alternaria tenuis"]}, {"conceptId": "C119320", "definition": "Any fungal organism that is not assigned to the species level but can be assigned to the Alternaria genus level.", "preferredTerm": "Alternaria", "submissionValue": "ALTERNARIA"}, {"conceptId": "C119581", "definition": "Any unicellular, eukaryotic organism that is not assigned to the species level but can be assigned to the Amoeba genus level.", "preferredTerm": "Amoeba", "submissionValue": "AMOEBA", "synonyms": ["Ameba"]}, {"conceptId": "C119321", "definition": "Any bacterial organism that does not require oxygen to grow or respirate and cannot be assigned to a specific genus or species.", "preferredTerm": "Anaerobic Bacteria", "submissionValue": "ANAEROBIC BACTERIA", "synonyms": ["Anaerobe"]}, {"conceptId": "C119322", "definition": "Any spherical shaped bacterial organism that does not require oxygen to grow or respirate and cannot be assigned to a specific genus or species.", "preferredTerm": "Anaerobic Coccus", "submissionValue": "ANAEROBIC COCCUS"}, {"conceptId": "C86142", "definition": "Any rod-shaped bacteria that does not require oxygen to grow or respirate and has a cell wall that contains low levels of peptidoglycan and stains pink with the Gram staining technique.", "preferredTerm": "Anaerobic Gram Negative Bacillus", "submissionValue": "ANAEROBIC GRAM-NEGATIVE BACILLUS", "synonyms": ["Anaerobic Gram-negative Rod"]}, {"conceptId": "C119323", "definition": "Any bacterial organism that does not require oxygen to grow or respirate, cannot be assigned to a specific genus or species, and has a cell wall that contains low levels of peptidoglycan and stains pink with the Gram staining technique.", "preferredTerm": "Anaerobic Gram-negative Bacteria", "submissionValue": "ANAEROBIC GRAM-NEGATIVE BACTERIA", "synonyms": ["Gram-negative Anaerobe"]}, {"conceptId": "C125955", "definition": "Any bacterial organism that does not require oxygen to grow or respirate, and is intermediate in morphology between a spherical-shaped coccus and a rod-shaped bacillus that contains low levels of peptidoglycan in its cell wall and stains pink with the Gram staining technique.", "preferredTerm": "Anaerobic Gram-Negative Coccobacillus", "submissionValue": "ANAEROBIC GRAM-NEGATIVE COCCOBACILLUS"}, {"conceptId": "C86143", "definition": "Any spherical-shaped bacteria that does not require oxygen to grow or respirate and has a cell wall that contains low levels of peptidoglycan and stains pink with the Gram staining technique.", "preferredTerm": "Anaerobic Gram Negative Coccus", "submissionValue": "ANAEROBIC GRAM-NEGATIVE COCCUS"}, {"conceptId": "C86144", "definition": "Any rod-shaped bacteria that does not require oxygen to grow or respirate and has a peptidoglycan-rich cell wall that stains dark purple with the Gram staining technique.", "preferredTerm": "Anaerobic Gram Positive Bacillus", "submissionValue": "ANAEROBIC GRAM-POSITIVE BACILLUS", "synonyms": ["Anaerobic Gram-positive Rod"]}, {"conceptId": "C120704", "definition": "Any bacterial organism that does not require oxygen to grow or respirate, cannot be assigned to a specific genus or species, and has a cell wall that contains high levels of peptidoglycan and stains purple with the Gram staining technique.", "preferredTerm": "Anaerobic Gram Positive Bacteria", "submissionValue": "ANAEROBIC GRAM-POSITIVE BACTERIA", "synonyms": ["Gram-positive Anaerobe"]}, {"conceptId": "C86145", "definition": "Any spherical-shaped bacteria that does not require oxygen to grow or respirate and has a peptidoglycan-rich cell wall that stains dark purple with the Gram staining technique.", "preferredTerm": "Anaerobic Gram Positive Coccus", "submissionValue": "ANAEROBIC GRAM-POSITIVE COCCUS"}, {"conceptId": "C86146", "definition": "Any bacteria assigned to the genus Streptococcus that does not require oxygen to grow or respirate.", "preferredTerm": "Anaerobic Streptococcus", "submissionValue": "ANAEROBIC STREPTOCOCCUS"}, {"conceptId": "C86874", "definition": "Any bacterial organism that can be assigned to the species Anaerococcus hydrogenalis.", "preferredTerm": "Anaerococcus hydrogenalis", "submissionValue": "ANAEROCOCCUS HYDROGENALIS", "synonyms": ["Peptostreptococcus hydrogenalis"]}, {"conceptId": "C86875", "definition": "Any bacterial organism that can be assigned to the species Anaerococcus prevotii.", "preferredTerm": "Anaerococcus prevotii", "submissionValue": "ANAEROCOCCUS PREVOTII", "synonyms": ["Micrococcus prevotii", "Peptococcus prevotii", "Peptostreptococcus prevotii"]}, {"conceptId": "C86876", "definition": "Any bacterial organism that can be assigned to the species Anaerococcus tetradius.", "preferredTerm": "Anaerococcus tetradius", "submissionValue": "ANAEROCOCCUS TETRADIUS", "synonyms": ["Gaffkya anaerobia", "Peptostreptotoccus tetradius"]}, {"conceptId": "C86877", "definition": "Any bacterial organism that can be assigned to the species Anaerococcus vaginalis.", "preferredTerm": "Anaerococcus vaginalis", "submissionValue": "ANAEROCOCCUS VAGINALIS"}, {"conceptId": "C86872", "definition": "Any bacteria that is not assigned to the species level but can be assigned to the Anaerococcus genus level.", "preferredTerm": "Anaerococcus", "submissionValue": "ANAEROCOCCUS"}, {"conceptId": "C187902", "definition": "Any bacteria that is not assigned to the species level but can be assigned to the Anaplasma genus level.", "preferredTerm": "Anaplasma", "submissionValue": "ANAPLASMA"}, {"conceptId": "C122239", "definition": "Any nematode parasite that can be assigned to the species Ancylostoma braziliense.", "preferredTerm": "Ancylostoma braziliense", "submissionValue": "ANCYLOSTOMA BRAZILIENSE", "synonyms": ["Ancylostoma ceylanicum", "Ancylostoma ceylonicum"]}, {"conceptId": "C122240", "definition": "Any nematode parasite that can be assigned to the species Ancylostoma caninum.", "preferredTerm": "Ancylostoma caninum", "submissionValue": "ANCYLOSTOMA CANINUM", "synonyms": ["Dog Hookworm"]}, {"conceptId": "C122241", "definition": "Any nematode parasite that can be assigned to the species Ancylostoma duodenale.", "preferredTerm": "Ancylostoma duodenale", "submissionValue": "ANCYLOSTOMA DUODENALE", "synonyms": ["European Hookworm", "Old World Hookworm"]}, {"conceptId": "C120705", "definition": "Any nematode parasite that is not assigned to the species level but can be assigned to the Ancylostoma genus level.", "preferredTerm": "Ancylostoma", "submissionValue": "ANCYLOSTOMA"}, {"conceptId": "C123646", "definition": "Any nematode parasite that can be assigned to the family of Ancylostomatoidea.", "preferredTerm": "Ancylostomatoidea", "submissionValue": "ANCYLOSTOMATOIDEA", "synonyms": ["Hookworms"]}, {"conceptId": "C122242", "definition": "Any nematode parasite that can be assigned to the species Angiostrongylus cantonensis.", "preferredTerm": "Angiostrongylus cantonensis", "submissionValue": "ANGIOSTRONGYLUS CANTONENSIS", "synonyms": ["Rat Lungworm"]}, {"conceptId": "C122042", "definition": "Any nematode parasite that is not assigned to the species level but can be assigned to the Angiostrongylus genus level.", "preferredTerm": "Angiostrongylus", "submissionValue": "ANGIOSTRONGYLUS"}, {"conceptId": "C122243", "definition": "Any nematode parasite that can be assigned to the species Anisakis simplex.", "preferredTerm": "Anisakis simplex", "submissionValue": "ANISAKIS SIMPLEX", "synonyms": ["Herring Worm"]}, {"conceptId": "C122043", "definition": "Any nematode parasite that is not assigned to the species level but can be assigned to the Anisakis genus level.", "preferredTerm": "Anisakis", "submissionValue": "ANISAKIS"}, {"conceptId": "C112229", "definition": "Any viral organism that can be assigned to the genus Aphthovirus.", "preferredTerm": "Aphthovirus", "submissionValue": "APHTHOVIRUS"}, {"conceptId": "C127681", "definition": "Any fungal organism that can be assigned to the species Apophysomyces elegans.", "preferredTerm": "Apophysomyces elegans", "submissionValue": "APOPHYSOMYCES ELEGANS"}, {"conceptId": "C112230", "definition": "A non-taxonomic grouping of viruses that are transmitted through an arthropod vector and replicate in a vertebrate host.", "preferredTerm": "Arbovirus", "submissionValue": "ARBOVIRUS", "synonyms": ["Arthropod-borne Virus"]}, {"conceptId": "C86148", "definition": "Any bacterial organism that can be assigned to the species Arcanobacterium bernardiae.", "preferredTerm": "Arcanobacterium bernardiae", "submissionValue": "ARCANOBACTERIUM BERNARDIAE"}, {"conceptId": "C86149", "definition": "Any bacterial organism that can be assigned to the species Arcanobacterium haemolyticum.", "preferredTerm": "Arcanobacterium haemolyticum", "submissionValue": "ARCANOBACTERIUM HAEMOLYTICUM", "synonyms": ["Corynebacterium haemolyticum", "Corynebacterium haemolyticus"]}, {"conceptId": "C86147", "definition": "Any bacteria that is not assigned to the species level but can be assigned to the Arcanobacterium genus level.", "preferredTerm": "Arcanobacterium", "submissionValue": "ARCANOBACTERIUM"}, {"conceptId": "C86153", "definition": "Any bacterial organism that can be assigned to the species Arcobacter butzleri.", "preferredTerm": "Arcobacter butzleri", "submissionValue": "ARCOBACTER BUTZLERI", "synonyms": ["Campylobacter butzleri"]}, {"conceptId": "C86154", "definition": "Any bacterial organism that can be assigned to the species Arcobacter cryaerophilus.", "preferredTerm": "Arcobacter cryaerophilus", "submissionValue": "ARCOBACTER CRYAEROPHILUS", "synonyms": ["Campylobacter cryaerophilus"]}, {"conceptId": "C86152", "definition": "Any bacteria that is not assigned to the species level but can be assigned to the Arcobacter genus level.", "preferredTerm": "Arcobacter", "submissionValue": "ARCOBACTER"}, {"conceptId": "C14306", "definition": "Any viral organism that can be assigned to the genus Arenavirus.", "preferredTerm": "Arenavirus", "submissionValue": "ARENAVIRUS"}, {"conceptId": "C127682", "definition": "Any fungal organism that can be assigned to the species Arthrinium phaeospermum.", "preferredTerm": "Arthrinium phaeospermum", "submissionValue": "ARTHRINIUM PHAEOSPERMUM"}, {"conceptId": "C114248", "definition": "Any bacterial organism that can be assigned to the species Arthrobacter cumminsii.", "preferredTerm": "Arthrobacter cumminsii", "submissionValue": "ARTHROBACTER CUMMINSII"}, {"conceptId": "C86155", "definition": "Any bacteria that is not assigned to the species level but can be assigned to the Arthrobacter genus level.", "preferredTerm": "Arthrobacter", "submissionValue": "ARTHROBACTER"}, {"conceptId": "C127683", "definition": "Any fungal organism that can be assigned to the species Arthroderma fulvum.", "preferredTerm": "Arthroderma fulvum", "submissionValue": "ARTHRODERMA FULVUM", "synonyms": ["Microsporum fulvum"]}, {"conceptId": "C127684", "definition": "Any fungal organism that can be assigned to the species Arthroderma obtusum.", "preferredTerm": "Arthroderma obtusum", "submissionValue": "ARTHRODERMA OBTUSUM", "synonyms": ["Microsporum nanum"]}, {"conceptId": "C127685", "definition": "Any fungal organism that can be assigned to the species Arthroderma otae.", "preferredTerm": "Arthroderma otae", "submissionValue": "ARTHRODERMA OTAE", "synonyms": ["Microsporum canis", "Nannizzia otae"]}, {"conceptId": "C127686", "definition": "Any fungal organism that can be assigned to the species Arthroderma persicolor.", "preferredTerm": "Arthroderma persicolor", "submissionValue": "ARTHRODERMA PERSICOLOR", "synonyms": ["Trichophyton persicolor"]}, {"conceptId": "C127687", "definition": "Any fungal organism that can be assigned to the species Arthroderma simii.", "preferredTerm": "Arthroderma simii", "submissionValue": "ARTHRODERMA SIMII", "synonyms": ["Trichophyton simii"]}, {"conceptId": "C139106", "definition": "Any fungal organism that is not assigned to the species level but can be assigned to the Arthrographis genus level.", "preferredTerm": "Arthrographis", "submissionValue": "ARTHROGRAPHIS"}, {"conceptId": "C122177", "definition": "Any nematode parasite that can be assigned to the species Ascaris lumbricoides.", "preferredTerm": "Ascaris lumbricoides", "submissionValue": "ASCARIS LUMBRICOIDES", "synonyms": ["Giant Roundworm"]}, {"conceptId": "C122244", "definition": "A non-taxonomic grouping of fungal species that are morphologically similar to the Aspergillus flavus species.", "preferredTerm": "Aspergillus Flavus Complex", "submissionValue": "ASPERGILLUS FLAVUS COMPLEX"}, {"conceptId": "C77181", "definition": "Any fungal organism that can be assigned to the species Aspergillus flavus.", "preferredTerm": "Aspergillus flavus", "submissionValue": "ASPERGILLUS FLAVUS"}, {"conceptId": "C122245", "definition": "A non-taxonomic grouping of fungal species that are morphologically similar to the Aspergillus fumigatus species.", "preferredTerm": "Aspergillus Fumigatus Complex", "submissionValue": "ASPERGILLUS FUMIGATUS COMPLEX"}, {"conceptId": "C77182", "definition": "Any fungal organism that can be assigned to the species Aspergillus fumigatus.", "preferredTerm": "Aspergillus fumigatus", "submissionValue": "ASPERGILLUS FUMIGATUS", "synonyms": ["Aspergillus fumigates"]}, {"conceptId": "C121138", "definition": "Any fungal organism that can be assigned to the species Aspergillus niger.", "preferredTerm": "Aspergillus niger", "submissionValue": "ASPERGILLUS NIGER"}, {"conceptId": "C150877", "definition": "Any fungal organism that can be assigned to the species Aspergillus niveus.", "preferredTerm": "Aspergillus niveus", "submissionValue": "ASPERGILLUS NIVEUS"}, {"conceptId": "C87508", "definition": "Any fungal organism that can be assigned to the species Aspergillus ochraceus.", "preferredTerm": "Aspergillus ochraceus", "submissionValue": "ASPERGILLUS OCHRACEUS"}, {"conceptId": "C87511", "definition": "Any fungal organism that can be assigned to the species Aspergillus terreus.", "preferredTerm": "Aspergillus terreus", "submissionValue": "ASPERGILLUS TERREUS", "synonyms": ["Aspergillus terrestrius"]}, {"conceptId": "C127688", "definition": "Any fungal organism that can be assigned to the species Aspergillus versicolor.", "preferredTerm": "Aspergillus versicolor", "submissionValue": "ASPERGILLUS VERSICOLOR", "synonyms": ["Sterigmatocystis versicolor"]}, {"conceptId": "C77180", "definition": "Any fungal organism that is not assigned to the species level but can be assigned to the Aspergillus genus level.", "preferredTerm": "Aspergillus", "submissionValue": "ASPERGILLUS"}, {"conceptId": "C127689", "definition": "Any fungal organism that can be assigned to the species Asterotremella humicola.", "preferredTerm": "Asterotremella humicola", "submissionValue": "ASTEROTREMELLA HUMICOLA", "synonyms": ["Apiotrichum humicola", "Azymoprocandida humicola", "Candida humicola", "Cryptococcus humicola", "Mycotorula humicola", "Torula humicola", "Vanrija humicola", "Vanrijia humicola"]}, {"conceptId": "C112231", "definition": "Any viral organism that can be assigned to the family Astroviridae.", "preferredTerm": "Astroviridae", "submissionValue": "ASTROVIRIDAE"}, {"conceptId": "C86156", "definition": "Any bacterial organism that can be assigned to the species Atopobium minutum.", "preferredTerm": "Atopobium minutum", "submissionValue": "ATOPOBIUM MINUTUM", "synonyms": ["Lactobacillus minutis", "Lactobacillus minutus"]}, {"conceptId": "C86157", "definition": "Any bacterial organism that can be assigned to the species Atopobium parvulum.", "preferredTerm": "Atopobium parvulum", "submissionValue": "ATOPOBIUM PARVULUM", "synonyms": ["Streptococcus parvulus"]}, {"conceptId": "C114244", "definition": "Any bacterial organism that can be assigned to the species Atopobium rimae.", "preferredTerm": "Atopobium rimae", "submissionValue": "ATOPOBIUM RIMAE", "synonyms": ["Lactobacillus rimae"]}, {"conceptId": "C122178", "definition": "Any bacterial organism that can be assigned to the species Atopobium vaginae.", "preferredTerm": "Atopobium vaginae", "submissionValue": "ATOPOBIUM VAGINAE"}, {"conceptId": "C127690", "definition": "Any fungal organism that can be assigned to the species Aureobasidium pullulans.", "preferredTerm": "Aureobasidium pullulans", "submissionValue": "AUREOBASIDIUM PULLULANS", "synonyms": ["Aureobasidium pullulans var. pullulans"]}, {"conceptId": "C86158", "definition": "Any bacterial organism that can be assigned to the species Avibacterium paragallinarum.", "preferredTerm": "Avibacterium paragallinarum", "submissionValue": "AVIBACTERIUM PARAGALLINARUM", "synonyms": ["Haemophilus paragallinarum"]}, {"conceptId": "C122179", "definition": "Any unicellular, eukaryotic organism that can be assigned to the species Babesia divergens.", "preferredTerm": "Babesia divergens", "submissionValue": "BABESIA DIVERGENS"}, {"conceptId": "C122180", "definition": "Any unicellular, eukaryotic organism that can be assigned to the species Babesia microti.", "preferredTerm": "Babesia microti", "submissionValue": "BABESIA MICROTI"}, {"conceptId": "C122040", "definition": "Any unicellular, eukaryotic organism that is not assigned to the species level but can be assigned to the Babesia genus level.", "preferredTerm": "Babesia", "submissionValue": "BABESIA"}, {"conceptId": "C86159", "definition": "Any bacterial organism that can be assigned to the species Bacillus alvei.", "preferredTerm": "Bacillus alvei", "submissionValue": "BACILLUS ALVEI"}, {"conceptId": "C86160", "definition": "Any bacterial organism that can be assigned to the species Bacillus anthracis.", "preferredTerm": "Bacillus anthracis", "submissionValue": "BACILLUS ANTHRACIS"}, {"conceptId": "C86161", "definition": "Any bacterial organism that can be assigned to the species Bacillus cereus.", "preferredTerm": "Bacillus cereus", "submissionValue": "BACILLUS CEREUS"}, {"conceptId": "C86162", "definition": "Any bacterial organism that can be assigned to the species Bacillus lentus.", "preferredTerm": "Bacillus lentus", "submissionValue": "BACILLUS LENTUS"}, {"conceptId": "C86163", "definition": "Any bacterial organism that can be assigned to the species Bacillus licheniformis.", "preferredTerm": "Bacillus licheniformis", "submissionValue": "BACILLUS LICHENIFORMIS"}, {"conceptId": "C86164", "definition": "Any bacterial organism that can be assigned to the species Bacillus megaterium.", "preferredTerm": "Bacillus megaterium", "submissionValue": "BACILLUS MEGATERIUM"}, {"conceptId": "C86165", "definition": "Any bacterial organism that can be assigned to the species Bacillus mycoides.", "preferredTerm": "Bacillus mycoides", "submissionValue": "BACILLUS MYCOIDES"}, {"conceptId": "C86166", "definition": "Any bacterial organism that can be assigned to the species Bacillus polymyxa.", "preferredTerm": "Bacillus polymyxa", "submissionValue": "BACILLUS POLYMYXA"}, {"conceptId": "C122181", "definition": "Any bacterial organism that can be assigned to the species Bacillus pumilus.", "preferredTerm": "Bacillus pumilus", "submissionValue": "BACILLUS PUMILUS", "synonyms": ["Bacillus aminoglucosidicus"]}, {"conceptId": "C86167", "definition": "Any bacterial organism that can be assigned to the species Bacillus subtilis.", "preferredTerm": "Bacillus subtilis", "submissionValue": "BACILLUS SUBTILIS"}, {"conceptId": "C76202", "definition": "Any bacteria that is not assigned to the species level but can be assigned to the Bacillus genus level.", "preferredTerm": "Bacillus", "submissionValue": "BACILLUS"}, {"conceptId": "C14187", "definition": "Any organism assigned to the kingdom Bacteria.", "preferredTerm": "Bacteria", "submissionValue": "BACTERIA", "synonyms": ["Bacterium", "Eubacteria"]}, {"conceptId": "C86168", "definition": "Any bacterial organism that can be assigned to the species Bacteroides caccae.", "preferredTerm": "Bacteroides caccae", "submissionValue": "BACTEROIDES CACCAE"}, {"conceptId": "C86169", "definition": "Any bacterial organism that can be assigned to the species Bacteroides capillosus.", "preferredTerm": "Bacteroides capillosus", "submissionValue": "BACTEROIDES CAPILLOSUS"}, {"conceptId": "C86170", "definition": "Any bacterial organism that can be assigned to the species Bacteroides cellulosolvens.", "preferredTerm": "Bacteroides cellulosolvens", "submissionValue": "BACTEROIDES CELLULOSOLVENS"}, {"conceptId": "C111133", "definition": "Any bacterial organism that can be assigned to the species Bacteroides dorei.", "preferredTerm": "Bacteroides dorei", "submissionValue": "BACTEROIDES DOREI"}, {"conceptId": "C86171", "definition": "Any bacterial organism that can be assigned to the species Bacteroides eggerthii.", "preferredTerm": "Bacteroides eggerthii", "submissionValue": "BACTEROIDES EGGERTHII"}, {"conceptId": "C111134", "definition": "Any bacterial organism that can be assigned to the species Bacteroides faecis.", "preferredTerm": "Bacteroides faecis", "submissionValue": "BACTEROIDES FAECIS"}, {"conceptId": "C86173", "definition": "A non-taxonomic grouping of bacteria that belongs to the fragilis group of the genus Bacteroides.", "preferredTerm": "Bacteroides fragilis Group", "submissionValue": "BACTEROIDES FRAGILIS GROUP"}, {"conceptId": "C86172", "definition": "Any bacterial organism that can be assigned to the species Bacteroides fragilis.", "preferredTerm": "Bacteroides fragilis", "submissionValue": "BACTEROIDES FRAGILIS"}, {"conceptId": "C119324", "definition": "Any bacterial organism that can be assigned to the species Bacteroides intestinalis.", "preferredTerm": "Bacteroides intestinalis", "submissionValue": "BACTEROIDES INTESTINALIS"}, {"conceptId": "C86174", "definition": "Any bacterial organism that can be assigned to the species Bacteroides nordii.", "preferredTerm": "Bacteroides nordii", "submissionValue": "BACTEROIDES NORDII"}, {"conceptId": "C86175", "definition": "Any bacterial organism that can be assigned to the species Bacteroides ovatus.", "preferredTerm": "Bacteroides ovatus", "submissionValue": "BACTEROIDES OVATUS"}, {"conceptId": "C86178", "definition": "Any bacterial organism that can be assigned to the species Bacteroides pyogenes.", "preferredTerm": "Bacteroides tectus", "submissionValue": "BACTEROIDES PYOGENES", "synonyms": ["Bacteroides tectum", "Bacteroides tectus"]}, {"conceptId": "C122182", "definition": "Any bacterial organism that can be assigned to the species Bacteroides salyersiae.", "preferredTerm": "Bacteroides salyersiae", "submissionValue": "BACTEROIDES SALYERSIAE"}, {"conceptId": "C86177", "definition": "Any bacterial organism that can be assigned to the species Bacteroides stercoris.", "preferredTerm": "Bacteroides stercoris", "submissionValue": "BACTEROIDES STERCORIS", "synonyms": ["Bacteroides fragilis subsp. A"]}, {"conceptId": "C86179", "definition": "Any bacterial organism that can be assigned to the species Bacteroides thetaiotamicron.", "preferredTerm": "Bacteroides thetaiotaomicron", "submissionValue": "BACTEROIDES THETAIOTAOMICRON"}, {"conceptId": "C86180", "definition": "Any bacterial organism that can be assigned to the species Bacteroides uniformis.", "preferredTerm": "Bacteroides uniformis", "submissionValue": "BACTEROIDES UNIFORMIS"}, {"conceptId": "C86182", "definition": "Any bacterial organism that can be assigned to the species Bacteroides vulgatus.", "preferredTerm": "Bacteroides vulgatus", "submissionValue": "BACTEROIDES VULGATUS"}, {"conceptId": "C122183", "definition": "Any bacterial organism that can be assigned to the species Bacteroides xylanisolvens.", "preferredTerm": "Bacteroides xylanisolvens", "submissionValue": "BACTEROIDES XYLANISOLVENS"}, {"conceptId": "C76204", "definition": "Any bacteria that is not assigned to the species level but can be assigned to the Bacteroides genus level.", "preferredTerm": "Bacteroides", "submissionValue": "BACTEROIDES"}, {"conceptId": "C122184", "definition": "Any amoebic organism that can be assigned to the species Balamuthia mandrillaris.", "preferredTerm": "Balamuthia mandrillaris", "submissionValue": "BALAMUTHIA MANDRILLARIS"}, {"conceptId": "C122041", "definition": "Any amoebic organism that is not assigned to the species level but can be assigned to the Balamuthia genus level.", "preferredTerm": "Balamuthia", "submissionValue": "BALAMUTHIA"}, {"conceptId": "C122246", "definition": "Any unicellular, eukaryotic organism that can be assigned to the species Balantidium coli.", "preferredTerm": "Balantidium coli", "submissionValue": "BALANTIDIUM COLI", "synonyms": ["Paramecium coli"]}, {"conceptId": "C112232", "definition": "Any viral organism that can be assigned to the species Barmah Forest virus.", "preferredTerm": "Barmah Forest Virus", "submissionValue": "BARMAH FOREST VIRUS"}, {"conceptId": "C86185", "definition": "Any bacterial organism that can be assigned to the species Bartonella elizabethae.", "preferredTerm": "Bartonella elizabethae", "submissionValue": "BARTONELLA ELIZABETHAE", "synonyms": ["Rochalimaea elizabethae"]}, {"conceptId": "C86186", "definition": "Any bacterial organism that can be assigned to the species Bartonella henselae.", "preferredTerm": "Bartonella henselae", "submissionValue": "BARTONELLA HENSELAE", "synonyms": ["Rochalimaea henselae"]}, {"conceptId": "C86187", "definition": "Any bacterial organism that can be assigned to the species Bartonella quintana.", "preferredTerm": "Bartonella quintana", "submissionValue": "BARTONELLA QUINTANA", "synonyms": ["Rochalimaea quintana"]}, {"conceptId": "C86184", "definition": "Any bacteria that is not assigned to the species level but can be assigned to the Bartonella genus level.", "preferredTerm": "Bartonella", "submissionValue": "BARTONELLA"}, {"conceptId": "C86189", "definition": "Any bacterial organism that can be assigned to the species Bergeyella zoohelcum.", "preferredTerm": "Bergeyella zoohelcum", "submissionValue": "BERGEYELLA ZOOHELCUM", "synonyms": ["Weeksella zoohelcum"]}, {"conceptId": "C86188", "definition": "Any bacteria that is not assigned to the species level but can be assigned to the Bergeyella genus level.", "preferredTerm": "Bergeyella", "submissionValue": "BERGEYELLA"}, {"conceptId": "C189614", "definition": "A non-taxonomic grouping of beta-hemolytic species within the Streptococcus genus that are assigned to the A group.", "preferredTerm": "Beta Streptococcus Group A", "submissionValue": "BETA STREPTOCOCCUS, GROUP A", "synonyms": ["GAS", "Streptococcus Group A"]}, {"conceptId": "C189615", "definition": "A non-taxonomic grouping of beta-hemolytic species within the Streptococcus genus that are assigned to the B group.", "preferredTerm": "Beta Streptococcus Group B", "submissionValue": "BETA STREPTOCOCCUS, GROUP B", "synonyms": ["GBS", "Streptococcus Group B"]}, {"conceptId": "C86191", "definition": "A non-taxonomic grouping of beta-hemolytic species within the Streptococcus genus that are assigned to the C group.", "preferredTerm": "Beta Streptococcus Group C", "submissionValue": "BETA STREPTOCOCCUS, GROUP C", "synonyms": ["GCS", "Streptococcus Group C"]}, {"conceptId": "C86192", "definition": "A non-taxonomic grouping of beta-hemolytic species within the Streptococcus genus that are assigned to the F group.", "preferredTerm": "Beta Streptococcus Group F", "submissionValue": "BETA STREPTOCOCCUS, GROUP F", "synonyms": ["GFS", "Streptococcus Group F"]}, {"conceptId": "C86193", "definition": "A non-taxonomic grouping of beta-hemolytic species within the Streptococcus genus that are assigned to the G group.", "preferredTerm": "Beta Streptococcus Group G", "submissionValue": "BETA STREPTOCOCCUS, GROUP G", "synonyms": ["GGS", "Streptococcus Group G"]}, {"conceptId": "C113207", "definition": "Any viral organism that can be assigned to the genus Betacoronavirus.", "preferredTerm": "Betacoronavirus", "submissionValue": "BETACORONAVIRUS", "synonyms": ["Coronavirus Group 2"]}, {"conceptId": "C86195", "definition": "Any bacterial organism that can be assigned to the species Bifidobacterium adolescentis.", "preferredTerm": "Bifidobacterium adolescentis", "submissionValue": "BIFIDOBACTERIUM ADOLESCENTIS"}, {"conceptId": "C86196", "definition": "Any bacterial organism that can be assigned to the species Bifidobacterium angulatum.", "preferredTerm": "Bifidobacterium angulatum", "submissionValue": "BIFIDOBACTERIUM ANGULATUM"}, {"conceptId": "C122247", "definition": "Any bacterial organism that can be assigned to the species Bifidobacterium animalis.", "preferredTerm": "Bifidobacterium animalis", "submissionValue": "BIFIDOBACTERIUM ANIMALIS"}, {"conceptId": "C86197", "definition": "Any bacterial organism that can be assigned to the species Bifidobacterium bifidum.", "preferredTerm": "Bifidobacterium bifidum", "submissionValue": "BIFIDOBACTERIUM BIFIDUM"}, {"conceptId": "C122248", "definition": "Any bacterial organism that can be assigned to the species Bifidobacterium breve.", "preferredTerm": "Bifidobacterium breve", "submissionValue": "BIFIDOBACTERIUM BREVE", "synonyms": ["Bifidobacterium parvulorum"]}, {"conceptId": "C86198", "definition": "Any bacterial organism that can be assigned to the species Bifidobacterium dentium.", "preferredTerm": "Bifidobacterium dentium", "submissionValue": "BIFIDOBACTERIUM DENTIUM", "synonyms": ["Bifidobacterium appendicitis"]}, {"conceptId": "C86199", "definition": "Any bacterial organism that can be assigned to the species Bifidobacterium longum.", "preferredTerm": "Bifidobacterium longum", "submissionValue": "BIFIDOBACTERIUM LONGUM"}, {"conceptId": "C122249", "definition": "Any bacterial organism that can be assigned to the species Bifidobacterium pseudocatenulatum.", "preferredTerm": "Bifidobacterium pseudocatenulatum", "submissionValue": "BIFIDOBACTERIUM PSEUDOCATENULATUM"}, {"conceptId": "C86194", "definition": "Any bacteria that is not assigned to the species level but can be assigned to the Bifidobacterium genus level.", "preferredTerm": "Bifidobacterium", "submissionValue": "BIFIDOBACTERIUM"}, {"conceptId": "C86201", "definition": "Any bacterial organism that can be assigned to the species Bilophila wadsworthia.", "preferredTerm": "Bilophila wadsworthia", "submissionValue": "BILOPHILA WADSWORTHIA"}, {"conceptId": "C86200", "definition": "Any bacteria that is not assigned to the species level but can be assigned to the Bilophila genus level.", "preferredTerm": "Bilophila", "submissionValue": "BILOPHILA"}, {"conceptId": "C122250", "definition": "Any fungal organism that is not assigned to the species level but can be assigned to the Bipolaris genus level.", "preferredTerm": "Bipolaris", "submissionValue": "BIPOLARIS"}, {"conceptId": "C89820", "definition": "Any viral organism that can be assigned to the species BK polyomavirus.", "preferredTerm": "BK Virus", "submissionValue": "BK POLYOMAVIRUS", "synonyms": ["BK Virus"]}, {"conceptId": "C122251", "definition": "Any unicellular, eukaryotic organism that can be assigned to the species Blastocystis hominis.", "preferredTerm": "Blastocystis hominis", "submissionValue": "BLASTOCYSTIS HOMINIS"}, {"conceptId": "C127691", "definition": "Any viral organism that can be assigned to the genus Bocaparvovirus.", "preferredTerm": "Bocaparvovirus", "submissionValue": "BOCAPARVOVIRUS", "synonyms": ["Bocavirus"]}, {"conceptId": "C86203", "definition": "Any bacterial organism that can be assigned to the species Bordetella avium.", "preferredTerm": "Bordetella avium", "submissionValue": "BORDETELLA AVIUM"}, {"conceptId": "C86204", "definition": "Any bacterial organism that can be assigned to the species Bordetella bronchiseptica.", "preferredTerm": "Bordetella bronchiseptica", "submissionValue": "BORDETELLA BRONCHISEPTICA", "synonyms": ["Bordetella bronchicanis"]}, {"conceptId": "C127692", "definition": "Any bacterial organism that can be assigned to the species Bordetella hinzii.", "preferredTerm": "Bordetella hinzii", "submissionValue": "BORDETELLA HINZII"}, {"conceptId": "C135460", "definition": "Any bacterial organism that can be assigned to the species Bordetella holmesii.", "preferredTerm": "Bordetella holmesii", "submissionValue": "BORDETELLA HOLMESII", "synonyms": ["CDC Nonoxidizer Group 2"]}, {"conceptId": "C86205", "definition": "Any bacterial organism that can be assigned to the species Bordetella parapertussis.", "preferredTerm": "Bordetella parapertussis", "submissionValue": "BORDETELLA PARAPERTUSSIS"}, {"conceptId": "C76205", "definition": "Any bacterial organism that can be assigned to the species Bordetella pertussis.", "preferredTerm": "Bordetella pertussis", "submissionValue": "BORDETELLA PERTUSSIS"}, {"conceptId": "C127693", "definition": "Any bacterial organism that can be assigned to the species Bordetella petrii.", "preferredTerm": "Bordetella petrii", "submissionValue": "BORDETELLA PETRII"}, {"conceptId": "C86202", "definition": "Any bacteria that is not assigned to the species level but can be assigned to the Bordetella genus level.", "preferredTerm": "Bordetella", "submissionValue": "BORDETELLA"}, {"conceptId": "C76208", "definition": "Any bacterial organism that can be assigned to the species Borrelia burgdorferi.", "preferredTerm": "Borrelia burgdorferi", "submissionValue": "BORRELIA BURGDORFERI"}, {"conceptId": "C122252", "definition": "Any bacterial organism that can be assigned to the species Borrelia miyamotoi.", "preferredTerm": "Borrelia miyamotoi", "submissionValue": "BORRELIA MIYAMOTOI"}, {"conceptId": "C86206", "definition": "Any bacteria that is not assigned to the species level but can be assigned to the Borrelia genus level.", "preferredTerm": "Borrelia", "submissionValue": "BORRELIA"}, {"conceptId": "C86208", "definition": "Any bacterial organism that can be assigned to the species Brevibacillus laterosporus.", "preferredTerm": "Brevibacillus laterosporus", "submissionValue": "BREVIBACILLUS LATEROSPORUS"}, {"conceptId": "C86207", "definition": "Any bacteria that is not assigned to the species level but can be assigned to the Brevibacillus genus level.", "preferredTerm": "Brevibacillus", "submissionValue": "BREVIBACILLUS"}, {"conceptId": "C86210", "definition": "Any bacterial organism that can be assigned to the species Brevibacterium casei.", "preferredTerm": "Brevibacterium casei", "submissionValue": "BREVIBACTERIUM CASEI"}, {"conceptId": "C86211", "definition": "Any bacterial organism that can be assigned to the species Brevibacterium epidermidis.", "preferredTerm": "Brevibacterium epidermidis", "submissionValue": "BREVIBACTERIUM EPIDERMIDIS"}, {"conceptId": "C86209", "definition": "Any bacteria that is not assigned to the species level but can be assigned to the Brevibacterium genus level.", "preferredTerm": "Brevibacterium", "submissionValue": "BREVIBACTERIUM"}, {"conceptId": "C86213", "definition": "Any bacterial organism that can be assigned to the species Brevundimonas diminuta.", "preferredTerm": "Brevundimonas diminuta", "submissionValue": "BREVUNDIMONAS DIMINUTA", "synonyms": ["Pseudomonas diminuta"]}, {"conceptId": "C86214", "definition": "Any bacterial organism that can be assigned to the species Brevundimonas vesicularis.", "preferredTerm": "Brevundimonas vesicularis", "submissionValue": "BREVUNDIMONAS VESICULARIS", "synonyms": ["Pseudomonas vesicularis"]}, {"conceptId": "C86212", "definition": "Any bacteria that is not assigned to the species level but can be assigned to the Brevundimonas genus level.", "preferredTerm": "Brevundimonas", "submissionValue": "BREVUNDIMONAS"}, {"conceptId": "C86216", "definition": "Any bacterial organism that can be assigned to the species Brucella abortus.", "preferredTerm": "Brucella abortus", "submissionValue": "BRUCELLA ABORTUS"}, {"conceptId": "C86217", "definition": "Any bacterial organism that can be assigned to the species Brucella canis.", "preferredTerm": "Brucella canis", "submissionValue": "BRUCELLA CANIS"}, {"conceptId": "C86218", "definition": "Any bacterial organism that can be assigned to the species Brucella melitensis.", "preferredTerm": "Brucella melitensis", "submissionValue": "BRUCELLA MELITENSIS"}, {"conceptId": "C86219", "definition": "Any bacterial organism that can be assigned to the species Brucella suis.", "preferredTerm": "Brucella suis", "submissionValue": "BRUCELLA SUIS"}, {"conceptId": "C86215", "definition": "Any bacteria that is not assigned to the species level but can be assigned to the Brucella genus level.", "preferredTerm": "Brucella", "submissionValue": "BRUCELLA"}, {"conceptId": "C86221", "definition": "Any bacterial organism that can be assigned to the species Budvicia aquatica.", "preferredTerm": "Budvicia aquatica", "submissionValue": "BUDVICIA AQUATICA"}, {"conceptId": "C86220", "definition": "Any bacteria that is not assigned to the species level but can be assigned to the Budvicia genus level.", "preferredTerm": "Budvicia", "submissionValue": "BUDVICIA"}, {"conceptId": "C172567", "definition": "Any bacterial organism that can be assigned to the species Burkholderia ambifaria.", "preferredTerm": "Burkholderia ambifaria", "submissionValue": "BURKHOLDERIA AMBIFARIA", "synonyms": ["Burkholderia cepacia Complex Genomovar VII"]}, {"conceptId": "C172566", "definition": "Any bacterial organism that can be assigned to the species Burkholderia anthina.", "preferredTerm": "Burkholderia anthina", "submissionValue": "BURKHOLDERIA ANTHINA"}, {"conceptId": "C86223", "definition": "Any bacterial organism that can be assigned to the species Burkholderia cenocepacia.", "preferredTerm": "Burkholderia cenocepacia", "submissionValue": "BURKHOLDERIA CENOCEPACIA"}, {"conceptId": "C86224", "definition": "A non-taxonomic grouping of bacterial species that are phenotypically or genetically similar to the Burkholderia cepacia species.", "preferredTerm": "Burkholderia cepacia Complex", "submissionValue": "BURKHOLDERIA CEPACIA COMPLEX"}, {"conceptId": "C76376", "definition": "Any bacterial organism that can be assigned to the species Burkholderia cepacia.", "preferredTerm": "Burkholderia cepacia", "submissionValue": "BURKHOLDERIA CEPACIA", "synonyms": ["Pseudomonas cepacia"]}, {"conceptId": "C172568", "definition": "Any bacterial organism that can be assigned to the species Burkholderia dolosa.", "preferredTerm": "Burkholderia dolosa", "submissionValue": "BURKHOLDERIA DOLOSA", "synonyms": ["Burkholderia cepacia Genomovar VI"]}, {"conceptId": "C86225", "definition": "Any bacterial organism that can be assigned to the species Burkholderia gladioli.", "preferredTerm": "Burkholderia gladioli", "submissionValue": "BURKHOLDERIA GLADIOLI", "synonyms": ["Pseudomonas gladioli"]}, {"conceptId": "C86226", "definition": "Any bacterial organism that can be assigned to the species Burkholderia mallei.", "preferredTerm": "Burkholderia mallei", "submissionValue": "BURKHOLDERIA MALLEI", "synonyms": ["Actinobacillus mallei"]}, {"conceptId": "C172571", "definition": "Any bacterial organism that can be assigned to the species Burkholderia multivorans.", "preferredTerm": "Burkholderia multivorans", "submissionValue": "BURKHOLDERIA MULTIVORANS", "synonyms": ["Burkholderia cepacia Genomovar II"]}, {"conceptId": "C86227", "definition": "Any bacterial organism that can be assigned to the species Burkholderia pseudomallei.", "preferredTerm": "Burkholderia pseudomallei", "submissionValue": "BURKHOLDERIA PSEUDOMALLEI", "synonyms": ["Burkholderia pseudomalle", "Pseudomonas pseudomallei"]}, {"conceptId": "C172565", "definition": "Any bacterial organism that can be assigned to the species Burkholderia pyrrocinia.", "preferredTerm": "Burkholderia pyrrocinia", "submissionValue": "BURKHOLDERIA PYRROCINIA", "synonyms": ["Pseudomonas pyrrocinia"]}, {"conceptId": "C172570", "definition": "Any bacterial organism that can be assigned to the species Burkholderia stabilis.", "preferredTerm": "Burkholderia stabilis", "submissionValue": "BURKHOLDERIA STABILIS", "synonyms": ["Burkholderia cepacia Genomovar IV"]}, {"conceptId": "C172569", "definition": "Any bacterial organism that can be assigned to the species Burkholderia vietnamiensis.", "preferredTerm": "Burkholderia vietnamiensis", "submissionValue": "BURKHOLDERIA VIETNAMIENSIS", "synonyms": ["Burkholderia cepacia Genomovar V"]}, {"conceptId": "C86222", "definition": "Any bacteria that is not assigned to the species level but can be assigned to the Burkholderia genus level.", "preferredTerm": "Burkholderia", "submissionValue": "BURKHOLDERIA"}, {"conceptId": "C86229", "definition": "Any bacterial organism that can be assigned to the species Buttiauxella agrestis.", "preferredTerm": "Buttiauxella agrestis", "submissionValue": "BUTTIAUXELLA AGRESTIS"}, {"conceptId": "C122253", "definition": "Any bacterial organism that can be assigned to the species Buttiauxella ferragutiae.", "preferredTerm": "Buttiauxella ferragutiae", "submissionValue": "BUTTIAUXELLA FERRAGUTIAE", "synonyms": ["CDC Enteric Group 63"]}, {"conceptId": "C122254", "definition": "Any bacterial organism that can be assigned to the species Buttiauxella gaviniae.", "preferredTerm": "Buttiauxella gaviniae", "submissionValue": "BUTTIAUXELLA GAVINIAE", "synonyms": ["CDC Enteric Group 64"]}, {"conceptId": "C122255", "definition": "Any bacterial organism that can be assigned to the species Buttiauxella noackiae.", "preferredTerm": "Buttiauxella noackiae", "submissionValue": "BUTTIAUXELLA NOACKIAE", "synonyms": ["CDC Enteric Group 59"]}, {"conceptId": "C86228", "definition": "Any bacteria that is not assigned to the species level but can be assigned to the Buttiauxella genus level.", "preferredTerm": "Buttiauxella", "submissionValue": "BUTTIAUXELLA"}, {"conceptId": "C127694", "definition": "Any fungal organism that can be assigned to the species Byssochlamys spectabilis.", "preferredTerm": "Byssochlamys spectabilis", "submissionValue": "BYSSOCHLAMYS SPECTABILIS", "synonyms": ["Paecilomyces spectabilis", "Paecilomyces variotii", "Talaromyces spectabilis"]}, {"conceptId": "C14304", "definition": "Any viral organism that can be assigned to the family Caliciviridae.", "preferredTerm": "Caliciviridae", "submissionValue": "CALICIVIRIDAE"}, {"conceptId": "C122256", "definition": "Any nematode parasite that can be assigned to the species Calodium hepaticum.", "preferredTerm": "Calodium hepaticum", "submissionValue": "CALODIUM HEPATICUM", "synonyms": ["Capillaria hepatica"]}, {"conceptId": "C86230", "definition": "Any bacterial organism that can be assigned to the species Campylobacter coli.", "preferredTerm": "Campylobacter coli", "submissionValue": "CAMPYLOBACTER COLI"}, {"conceptId": "C86231", "definition": "Any bacterial organism that can be assigned to the species Campylobacter concisus.", "preferredTerm": "Campylobacter concisus", "submissionValue": "CAMPYLOBACTER CONCISUS"}, {"conceptId": "C86232", "definition": "Any bacterial organism that can be assigned to the species Campylobacter curvus.", "preferredTerm": "Campylobacter curvus", "submissionValue": "CAMPYLOBACTER CURVUS", "synonyms": ["Wolinella curva"]}, {"conceptId": "C86233", "definition": "Any bacterial organism that can be assigned to the species Campylobacter fetus.", "preferredTerm": "Campylobacter fetus", "submissionValue": "CAMPYLOBACTER FETUS", "synonyms": ["Vibrio fetus"]}, {"conceptId": "C86234", "definition": "Any bacterial organism that can be assigned to the species Campylobacter gracilis.", "preferredTerm": "Campylobacter gracilis", "submissionValue": "CAMPYLOBACTER GRACILIS", "synonyms": ["Bacteroides gracilis"]}, {"conceptId": "C86235", "definition": "Any bacterial organism that can be assigned to the species Campylobacter jejuni.", "preferredTerm": "Campylobacter jejuni", "submissionValue": "CAMPYLOBACTER JEJUNI"}, {"conceptId": "C86236", "definition": "Any bacterial organism that can be assigned to the species Campylobacter lari.", "preferredTerm": "Campylobacter lari", "submissionValue": "CAMPYLOBACTER LARI", "synonyms": ["Campylobacter laridis"]}, {"conceptId": "C86237", "definition": "Any bacterial organism that can be assigned to the species Campylobacter rectus.", "preferredTerm": "Campylobacter rectus", "submissionValue": "CAMPYLOBACTER RECTUS", "synonyms": ["Wolinella recta"]}, {"conceptId": "C86238", "definition": "Any bacterial organism that can be assigned to the species Campylobacter upsaliensis.", "preferredTerm": "Campylobacter upsaliensis", "submissionValue": "CAMPYLOBACTER UPSALIENSIS"}, {"conceptId": "C86181", "definition": "Any bacterial organism that can be assigned to the species Campylobacter ureolyticus.", "preferredTerm": "Bacteroides ureolyticus", "submissionValue": "CAMPYLOBACTER UREOLYTICUS", "synonyms": ["Bacteroides corrodens", "Bacteroides ureolyticus"]}, {"conceptId": "C76211", "definition": "Any bacteria that is not assigned to the species level but can be assigned to the Campylobacter genus level.", "preferredTerm": "Campylobacter", "submissionValue": "CAMPYLOBACTER"}, {"conceptId": "C77170", "definition": "Any fungal organism that can be assigned to the species Candida albicans.", "preferredTerm": "Candida albicans", "submissionValue": "CANDIDA ALBICANS", "synonyms": ["Candida stellatoidea"]}, {"conceptId": "C127695", "definition": "Any fungal organism that can be assigned to the species Candida boidinii.", "preferredTerm": "Candida boidinii", "submissionValue": "CANDIDA BOIDINII", "synonyms": ["Hansenula alcolica"]}, {"conceptId": "C114255", "definition": "Any fungal organism that can be assigned to the species Candida dubliniensis.", "preferredTerm": "Candida dubliniensis", "submissionValue": "CANDIDA DUBLINIENSIS"}, {"conceptId": "C127696", "definition": "Any fungal organism that can be assigned to the species Candida famata.", "preferredTerm": "Candida famata", "submissionValue": "CANDIDA FAMATA"}, {"conceptId": "C77179", "definition": "Any fungal organism that can be assigned to the species Candida glabrata.", "preferredTerm": "Candida glabrata", "submissionValue": "CANDIDA GLABRATA", "synonyms": ["Torulopsis glabrata"]}, {"conceptId": "C127697", "definition": "Any fungal organism that can be assigned to the species Candida inconspicua.", "preferredTerm": "Candida inconspicua", "submissionValue": "CANDIDA INCONSPICUA", "synonyms": ["Torulopsis inconspicua"]}, {"conceptId": "C120706", "definition": "Any fungal organism that can be assigned to the species Candida intermedia.", "preferredTerm": "Candida intermedia", "submissionValue": "CANDIDA INTERMEDIA", "synonyms": ["Blastodendrion intermedium", "Blastodendrion intermedius", "Cryptococcus intermedius", "Kluyveromyces cellobiovorus", "Mycotorula intermedia"]}, {"conceptId": "C114260", "definition": "Any fungal organism that can be assigned to the species Candida orthopsilosis.", "preferredTerm": "Candida orthopsilosis", "submissionValue": "CANDIDA ORTHOPSILOSIS", "synonyms": ["Candida parapsilosis group II"]}, {"conceptId": "C77176", "definition": "Any fungal organism that can be assigned to the species Candida parapsilosis.", "preferredTerm": "Candida parapsilosis", "submissionValue": "CANDIDA PARAPSILOSIS"}, {"conceptId": "C114258", "definition": "Any fungal organism that can be assigned to the species Candida pararugosa.", "preferredTerm": "Candida pararugosa", "submissionValue": "CANDIDA PARARUGOSA"}, {"conceptId": "C114254", "definition": "Any fungal organism that can be assigned to the species Candida rugosa.", "preferredTerm": "Candida rugosa", "submissionValue": "CANDIDA RUGOSA"}, {"conceptId": "C127698", "definition": "Any fungal organism that can be assigned to the species Candida sake.", "preferredTerm": "Candida sake", "submissionValue": "CANDIDA SAKE"}, {"conceptId": "C77177", "definition": "Any fungal organism that can be assigned to the species Candida tropicalis.", "preferredTerm": "Candida tropicalis", "submissionValue": "CANDIDA TROPICALIS"}, {"conceptId": "C114261", "definition": "Any fungal organism that can be assigned to the species Candida zeylanoides.", "preferredTerm": "Candida zeylanoides", "submissionValue": "CANDIDA ZEYLANOIDES", "synonyms": ["Candida krissii"]}, {"conceptId": "C77163", "definition": "Any fungal organism that is not assigned to the species level but can be assigned to the Candida genus level.", "preferredTerm": "Candida", "submissionValue": "CANDIDA"}, {"conceptId": "C122257", "definition": "Any nematode parasite that can be assigned to the species Capillaria philippinensis.", "preferredTerm": "Capillaria philippinensis", "submissionValue": "CAPILLARIA PHILIPPINENSIS", "synonyms": ["Paracapillaria philippinensis"]}, {"conceptId": "C122044", "definition": "Any nematode parasite that is not assigned to the species level but can be assigned to the Capillaria genus level.", "preferredTerm": "Capillaria", "submissionValue": "CAPILLARIA", "synonyms": ["Hairworm"]}, {"conceptId": "C86239", "definition": "Any bacterial organism that can be assigned to the species Capnocytophaga canimorsus.", "preferredTerm": "Capnocytophaga canimorsus", "submissionValue": "CAPNOCYTOPHAGA CANIMORSUS"}, {"conceptId": "C86240", "definition": "Any bacterial organism that can be assigned to the species Capnocytophaga gingivalis.", "preferredTerm": "Capnocytophaga gingivalis", "submissionValue": "CAPNOCYTOPHAGA GINGIVALIS"}, {"conceptId": "C86241", "definition": "Any bacterial organism that can be assigned to the species Capnocytophaga ochracea.", "preferredTerm": "Capnocytophaga ochracea", "submissionValue": "CAPNOCYTOPHAGA OCHRACEA"}, {"conceptId": "C86242", "definition": "Any bacterial organism that can be assigned to the species Capnocytophaga sputigena.", "preferredTerm": "Capnocytophaga sputigena", "submissionValue": "CAPNOCYTOPHAGA SPUTIGENA"}, {"conceptId": "C76269", "definition": "Any bacteria that is not assigned to the species level but can be assigned to the Capnocytophaga genus level.", "preferredTerm": "Capnocytophaga", "submissionValue": "CAPNOCYTOPHAGA"}, {"conceptId": "C150879", "definition": "Any bacterial organism that can be assigned to the genus Acinetobacter and is resistant to the antibiotic carbapenem.", "preferredTerm": "Carbapenem Resistant Acinetobacter", "submissionValue": "CARBAPENEM RESISTANT ACINETOBACTER"}, {"conceptId": "C86244", "definition": "Any bacterial organism that can be assigned to the species Cardiobacterium hominis.", "preferredTerm": "Cardiobacterium hominis", "submissionValue": "CARDIOBACTERIUM HOMINIS"}, {"conceptId": "C86243", "definition": "Any bacteria that is not assigned to the species level but can be assigned to the Cardiobacterium genus level.", "preferredTerm": "Cardiobacterium", "submissionValue": "CARDIOBACTERIUM"}, {"conceptId": "C86246", "definition": "Any bacterial organism that can be assigned to the species Cedecea davisae.", "preferredTerm": "Cedecea davisae", "submissionValue": "CEDECEA DAVISAE"}, {"conceptId": "C86247", "definition": "Any bacterial organism that can be assigned to the species Cedecea lapagei.", "preferredTerm": "Cedecea lapagei", "submissionValue": "CEDECEA LAPAGEI"}, {"conceptId": "C86248", "definition": "Any bacterial organism that can be assigned to the species Cedecea neteri.", "preferredTerm": "Cedecea neteri", "submissionValue": "CEDECEA NETERI", "synonyms": ["Cedecea Species 4"]}, {"conceptId": "C86245", "definition": "Any bacteria that is not assigned to the species level but can be assigned to the Cedecea genus level.", "preferredTerm": "Cedecea", "submissionValue": "CEDECEA"}, {"conceptId": "C86250", "definition": "Any bacterial organism that can be assigned to the species Cellulomonas hominis.", "preferredTerm": "Cellulomonas hominis", "submissionValue": "CELLULOMONAS HOMINIS"}, {"conceptId": "C86249", "definition": "Any bacteria that is not assigned to the species level but can be assigned to the Cellulomonas genus level.", "preferredTerm": "Cellulomonas", "submissionValue": "CELLULOMONAS"}, {"conceptId": "C86252", "definition": "Any bacterial organism that can be assigned to the species Cellulosimicrobium cellulans.", "preferredTerm": "Cellulosimicrobium cellulans", "submissionValue": "CELLULOSIMICROBIUM CELLULANS", "synonyms": ["Arthrobacter luteus", "Cellulomonas cellulans", "Nocardia cellulans", "Oerskovia xanthineolytica"]}, {"conceptId": "C86251", "definition": "Any bacteria that is not assigned to the species level but can be assigned to the Cellulosimicrobium genus level.", "preferredTerm": "Cellulosimicrobium", "submissionValue": "CELLULOSIMICROBIUM"}, {"conceptId": "C122045", "definition": "Any parasitic flatworm that is not assigned to the species level but can be assigned to the Cestoda class level.", "preferredTerm": "Cestoda", "submissionValue": "CESTODA", "synonyms": ["Tapeworm"]}, {"conceptId": "C122258", "definition": "Any fungal organism that is not assigned to the species level but can be assigned to the Chaetomium genus level.", "preferredTerm": "Chaetomium", "submissionValue": "CHAETOMIUM"}, {"conceptId": "C125638", "definition": "Any viral organism that can be assigned to the species Chikungunya virus.", "preferredTerm": "Chikungunya Virus", "submissionValue": "CHIKUNGUNYA VIRUS"}, {"conceptId": "C122259", "definition": "Any unicellular, eukaryotic organism that can be assigned to the species Chilomastix mesnili.", "preferredTerm": "Chilomastix mesnili", "submissionValue": "CHILOMASTIX MESNILI"}, {"conceptId": "C86253", "definition": "Any bacterial organism that can be assigned to the species Chlamydia trachomatis.", "preferredTerm": "Chlamydia trachomatis", "submissionValue": "CHLAMYDIA TRACHOMATIS"}, {"conceptId": "C76271", "definition": "Any bacteria that is not assigned to the species level but can be assigned to the Chlamydia genus level.", "preferredTerm": "Chlamydia", "submissionValue": "CHLAMYDIA"}, {"conceptId": "C76272", "definition": "Any bacterial organism that can be assigned to the species Chlamydophila pneumoniae.", "preferredTerm": "Chlamydophila pneumoniae", "submissionValue": "CHLAMYDOPHILA PNEUMONIAE", "synonyms": ["Chlamydia pneumoniae"]}, {"conceptId": "C86255", "definition": "Any bacterial organism that can be assigned to the species Chlamydophila psittaci.", "preferredTerm": "Chlamydophila psittaci", "submissionValue": "CHLAMYDOPHILA PSITTACI", "synonyms": ["Chlamydia psittaci"]}, {"conceptId": "C86254", "definition": "Any bacteria that is not assigned to the species level but can be assigned to the Chlamydophila genus level.", "preferredTerm": "Chlamydophila", "submissionValue": "CHLAMYDOPHILA"}, {"conceptId": "C86257", "definition": "Any bacterial organism that can be assigned to the species Chromobacterium violaceum.", "preferredTerm": "Chromobacterium violaceum", "submissionValue": "CHROMOBACTERIUM VIOLACEUM"}, {"conceptId": "C86256", "definition": "Any bacteria that is not assigned to the species level but can be assigned to the Chromobacterium genus level.", "preferredTerm": "Chromobacterium", "submissionValue": "CHROMOBACTERIUM"}, {"conceptId": "C86259", "definition": "Any bacterial organism that can be assigned to the species Chryseobacterium gleum.", "preferredTerm": "Chryseobacterium gleum", "submissionValue": "CHRYSEOBACTERIUM GLEUM", "synonyms": ["Flavobacterium gleum"]}, {"conceptId": "C86260", "definition": "Any bacterial organism that can be assigned to the species Chryseobacterium indologenes.", "preferredTerm": "Chryseobacterium indologenes", "submissionValue": "CHRYSEOBACTERIUM INDOLOGENES", "synonyms": ["Flavobacterium indologenes"]}, {"conceptId": "C86258", "definition": "Any bacteria that is not assigned to the species level but can be assigned to the Chryseobacterium genus level.", "preferredTerm": "Chryseobacterium", "submissionValue": "CHRYSEOBACTERIUM"}, {"conceptId": "C86261", "definition": "Any bacteria that is not assigned to the species level but can be assigned to the Chryseomonas genus level.", "preferredTerm": "Chryseomonas", "submissionValue": "CHRYSEOMONAS"}, {"conceptId": "C122260", "definition": "Any fungal organism that is not assigned to the species level but can be assigned to the Chrysosporium genus level.", "preferredTerm": "Chrysosporium", "submissionValue": "CHRYSOSPORIUM"}, {"conceptId": "C86262", "definition": "Any bacterial organism that can be assigned to the species Citrobacter amalonaticus.", "preferredTerm": "Citrobacter amalonaticus", "submissionValue": "CITROBACTER AMALONATICUS", "synonyms": ["Levinea amalonatica"]}, {"conceptId": "C86263", "definition": "Any bacterial organism that can be assigned to the species Citrobacter braakii.", "preferredTerm": "Citrobacter braakii", "submissionValue": "CITROBACTER BRAAKII"}, {"conceptId": "C86264", "definition": "Any bacterial organism that can be assigned to the species Citrobacter farmeri.", "preferredTerm": "Citrobacter farmeri", "submissionValue": "CITROBACTER FARMERI", "synonyms": ["Citrobacter amalonaticus Biogroup 1"]}, {"conceptId": "C86266", "definition": "A non-taxonomic grouping of bacterial species that are phenotypically or genetically similar to the Citrobacter freundii species.", "preferredTerm": "Citrobacter freundii Complex", "submissionValue": "CITROBACTER FREUNDII COMPLEX"}, {"conceptId": "C86265", "definition": "Any bacterial organism that can be assigned to the species Citrobacter freundii.", "preferredTerm": "Citrobacter freundii", "submissionValue": "CITROBACTER FREUNDII", "synonyms": ["Colobactrum freundii"]}, {"conceptId": "C86267", "definition": "Any bacterial organism that can be assigned to the species Citrobacter koseri.", "preferredTerm": "Citrobacter koseri", "submissionValue": "CITROBACTER KOSERI", "synonyms": ["Citrobacter diversus"]}, {"conceptId": "C139100", "definition": "Any bacterial organism that can be assigned to the species Citrobacter werkmanii.", "preferredTerm": "Citrobacter werkmanii", "submissionValue": "CITROBACTER WERKMANII", "synonyms": ["Citrobacter Genomospecies 7"]}, {"conceptId": "C86268", "definition": "Any bacterial organism that can be assigned to the species Citrobacter youngae.", "preferredTerm": "Citrobacter youngae", "submissionValue": "CITROBACTER YOUNGAE"}, {"conceptId": "C76273", "definition": "Any bacteria that is not assigned to the species level but can be assigned to the Citrobacter genus level.", "preferredTerm": "Citrobacter", "submissionValue": "CITROBACTER"}, {"conceptId": "C187903", "definition": "Any fungal organism that can be assigned to the species Cladosporium herbarum.", "preferredTerm": "Cladosporium herbarum", "submissionValue": "CLADOSPORIUM HERBARUM", "synonyms": ["Byssus herbarum", "Dematium herbarum"]}, {"conceptId": "C122261", "definition": "Any fungal organism that is not assigned to the species level but can be assigned to the Cladosporium genus level.", "preferredTerm": "Cladosporium", "submissionValue": "CLADOSPORIUM"}, {"conceptId": "C77174", "definition": "Any fungal organism that can be assigned to the species Clavispora lusitaniae.", "preferredTerm": "Clavispora lusitaniae", "submissionValue": "CLAVISPORA LUSITANIAE", "synonyms": ["Candida lusitaniae"]}, {"conceptId": "C122262", "definition": "Any trematode parasite that can be assigned to the species Clonorchis sinensis.", "preferredTerm": "Clonorchis sinensis", "submissionValue": "CLONORCHIS SINENSIS", "synonyms": ["Oriental liver fluke"]}, {"conceptId": "C86269", "definition": "Any bacterial organism that can be assigned to the species Clostridium acetobutylicum.", "preferredTerm": "Clostridium acetobutylicum", "submissionValue": "CLOSTRIDIUM ACETOBUTYLICUM"}, {"conceptId": "C122263", "definition": "Any bacterial organism that can be assigned to the species Clostridium aldenense.", "preferredTerm": "Clostridium aldenense", "submissionValue": "CLOSTRIDIUM ALDENENSE"}, {"conceptId": "C86270", "definition": "Any bacterial organism that can be assigned to the species Clostridium baratii.", "preferredTerm": "Clostridium baratii", "submissionValue": "CLOSTRIDIUM BARATII", "synonyms": ["Clostridium barati"]}, {"conceptId": "C86271", "definition": "Any bacterial organism that can be assigned to the species Clostridium beijerinckii.", "preferredTerm": "Clostridium beijerinckii", "submissionValue": "CLOSTRIDIUM BEIJERINCKII"}, {"conceptId": "C86272", "definition": "Any bacterial organism that can be assigned to the species Clostridium bifermentans.", "preferredTerm": "Clostridium bifermentans", "submissionValue": "CLOSTRIDIUM BIFERMENTANS", "synonyms": ["Paraclostridium bifermentans"]}, {"conceptId": "C114250", "definition": "Any bacterial organism that can be assigned to the species Clostridium bolteae.", "preferredTerm": "Clostridium bolteae", "submissionValue": "CLOSTRIDIUM BOLTEAE"}, {"conceptId": "C86273", "definition": "Any bacterial organism that can be assigned to the species Clostridium butyricum.", "preferredTerm": "Clostridium butyricum", "submissionValue": "CLOSTRIDIUM BUTYRICUM", "synonyms": ["Clostridium pseudotetanicum"]}, {"conceptId": "C86274", "definition": "Any bacterial organism that can be assigned to the species Clostridium cadaveris.", "preferredTerm": "Clostridium cadaveris", "submissionValue": "CLOSTRIDIUM CADAVERIS"}, {"conceptId": "C86275", "definition": "Any bacterial organism that can be assigned to the species Clostridium celatum.", "preferredTerm": "Clostridium celatum", "submissionValue": "CLOSTRIDIUM CELATUM"}, {"conceptId": "C122264", "definition": "Any bacterial organism that can be assigned to the species Clostridium citroniae.", "preferredTerm": "Clostridium citroniae", "submissionValue": "CLOSTRIDIUM CITRONIAE"}, {"conceptId": "C86276", "definition": "Any bacterial organism that can be assigned to the species Clostridium clostridioforme.", "preferredTerm": "Clostridium clostridioforme", "submissionValue": "CLOSTRIDIUM CLOSTRIDIOFORME", "synonyms": ["Clostridium clostridiiforme"]}, {"conceptId": "C86277", "definition": "Any bacterial organism that can be assigned to the species Clostridium cochlearium.", "preferredTerm": "Clostridium cochlearium", "submissionValue": "CLOSTRIDIUM COCHLEARIUM"}, {"conceptId": "C86278", "definition": "Any bacterial organism that can be assigned to the species Clostridium cocleatum.", "preferredTerm": "Clostridium cocleatum", "submissionValue": "CLOSTRIDIUM COCLEATUM"}, {"conceptId": "C187904", "definition": "Any bacterial organism that can be assigned to the species Clostridium colicanis.", "preferredTerm": "Clostridium colicanis", "submissionValue": "CLOSTRIDIUM COLICANIS"}, {"conceptId": "C76276", "definition": "Any bacterial organism that can be assigned to the species Clostridium difficile.", "preferredTerm": "Clostridium difficile", "submissionValue": "CLOSTRIDIUM DIFFICILE", "synonyms": ["Clostridioides difficile", "Clostridium difficilis"]}, {"conceptId": "C86279", "definition": "Any bacterial organism that can be assigned to the species Clostridium fallax.", "preferredTerm": "Clostridium fallax", "submissionValue": "CLOSTRIDIUM FALLAX", "synonyms": ["Clostridium pseudofallax"]}, {"conceptId": "C86280", "definition": "Any bacterial organism that can be assigned to the species Clostridium glycolicum.", "preferredTerm": "Clostridium glycolicum", "submissionValue": "CLOSTRIDIUM GLYCOLICUM"}, {"conceptId": "C86281", "definition": "Any bacterial organism that can be assigned to the species Clostridium haemolyticum.", "preferredTerm": "Clostridium haemolyticum", "submissionValue": "CLOSTRIDIUM HAEMOLYTICUM"}, {"conceptId": "C114251", "definition": "Any bacterial organism that can be assigned to the species Clostridium hathewayi.", "preferredTerm": "Clostridium hathewayi", "submissionValue": "CLOSTRIDIUM HATHEWAYI"}, {"conceptId": "C86282", "definition": "Any bacterial organism that can be assigned to the species Clostridium histolyticum.", "preferredTerm": "Clostridium histolyticum", "submissionValue": "CLOSTRIDIUM HISTOLYTICUM"}, {"conceptId": "C86283", "definition": "Any bacterial organism that can be assigned to the species Clostridium innocuum.", "preferredTerm": "Clostridium innocuum", "submissionValue": "CLOSTRIDIUM INNOCUUM"}, {"conceptId": "C86284", "definition": "Any bacterial organism that can be assigned to the species Clostridium limosum.", "preferredTerm": "Clostridium limosum", "submissionValue": "CLOSTRIDIUM LIMOSUM"}, {"conceptId": "C86285", "definition": "Any bacterial organism that can be assigned to the species Clostridium novyi.", "preferredTerm": "Clostridium novyi", "submissionValue": "CLOSTRIDIUM NOVYI"}, {"conceptId": "C86286", "definition": "Any bacterial organism that can be assigned to the species Clostridium oceanicum.", "preferredTerm": "Clostridium oceanicum", "submissionValue": "CLOSTRIDIUM OCEANICUM"}, {"conceptId": "C122265", "definition": "Any bacterial organism that can be assigned to the species Clostridium oroticum.", "preferredTerm": "Clostridium oroticum", "submissionValue": "CLOSTRIDIUM OROTICUM", "synonyms": ["Zymobacterium oroticum"]}, {"conceptId": "C86287", "definition": "Any bacterial organism that can be assigned to the species Clostridium paraputrificum.", "preferredTerm": "Clostridium paraputrificum", "submissionValue": "CLOSTRIDIUM PARAPUTRIFICUM"}, {"conceptId": "C86288", "definition": "Any bacterial organism that can be assigned to the species Clostridium perfringens.", "preferredTerm": "Clostridium perfringens", "submissionValue": "CLOSTRIDIUM PERFRINGENS", "synonyms": ["Clostridium welchii"]}, {"conceptId": "C86289", "definition": "Any bacterial organism that can be assigned to the species Clostridium putrificum.", "preferredTerm": "Clostridium putrificum", "submissionValue": "CLOSTRIDIUM PUTRIFICUM", "synonyms": ["Clostridium lentoputrescens"]}, {"conceptId": "C86290", "definition": "Any bacterial organism that can be assigned to the species Clostridium ramosum.", "preferredTerm": "Clostridium ramosum", "submissionValue": "CLOSTRIDIUM RAMOSUM", "synonyms": ["Actinomyces ramosus"]}, {"conceptId": "C86291", "definition": "Any bacterial organism that can be assigned to the species Clostridium rectum.", "preferredTerm": "Clostridium rectum", "submissionValue": "CLOSTRIDIUM RECTUM"}, {"conceptId": "C119325", "definition": "Any bacterial organism that can be assigned to the species Clostridium sartagoforme.", "preferredTerm": "Clostridium sartagoforme", "submissionValue": "CLOSTRIDIUM SARTAGOFORME"}, {"conceptId": "C86292", "definition": "Any bacterial organism that can be assigned to the species Clostridium septicum.", "preferredTerm": "Clostridium septicum", "submissionValue": "CLOSTRIDIUM SEPTICUM"}, {"conceptId": "C86293", "definition": "Any bacterial organism that can be assigned to the species Clostridium sordellii.", "preferredTerm": "Clostridium sordellii", "submissionValue": "CLOSTRIDIUM SORDELLII", "synonyms": ["Paeniclostridium sordellii"]}, {"conceptId": "C122266", "definition": "Any bacterial organism that can be assigned to the species Clostridium spiroforme.", "preferredTerm": "Clostridium spiroforme", "submissionValue": "CLOSTRIDIUM SPIROFORME"}, {"conceptId": "C86294", "definition": "Any bacterial organism that can be assigned to the species Clostridium sporogenes.", "preferredTerm": "Clostridium sporogenes", "submissionValue": "CLOSTRIDIUM SPOROGENES"}, {"conceptId": "C86295", "definition": "Any bacterial organism that can be assigned to the species Clostridium subterminale.", "preferredTerm": "Clostridium subterminale", "submissionValue": "CLOSTRIDIUM SUBTERMINALE"}, {"conceptId": "C86296", "definition": "Any bacterial organism that can be assigned to the species Clostridium symbiosum.", "preferredTerm": "Clostridium symbiosum", "submissionValue": "CLOSTRIDIUM SYMBIOSUM", "synonyms": ["Bacteroides symbiosus"]}, {"conceptId": "C86297", "definition": "Any bacterial organism that can be assigned to the species Clostridium tertium.", "preferredTerm": "Clostridium tertium", "submissionValue": "CLOSTRIDIUM TERTIUM"}, {"conceptId": "C86298", "definition": "Any bacterial organism that can be assigned to the species Clostridium tetani.", "preferredTerm": "Clostridium tetani", "submissionValue": "CLOSTRIDIUM TETANI"}, {"conceptId": "C86299", "definition": "Any bacterial organism that can be assigned to the species Clostridium tyrobutyricum.", "preferredTerm": "Clostridium tyrobutyricum", "submissionValue": "CLOSTRIDIUM TYROBUTYRICUM"}, {"conceptId": "C76275", "definition": "Any bacteria that is not assigned to the species level but can be assigned to the Clostridium genus level.", "preferredTerm": "Clostridium", "submissionValue": "CLOSTRIDIUM"}, {"conceptId": "C62584", "definition": "Any bacteria assigned to the genus Staphylococcus that does not express the enzyme coagulase.", "preferredTerm": "Coagulase-Negative Staphylococcus", "submissionValue": "COAGULASE NEGATIVE STAPHYLOCOCCUS"}, {"conceptId": "C62585", "definition": "Any bacteria assigned to the genus Staphylococcus that expresses the enzyme coagulase.", "preferredTerm": "Coagulase-Positive Staphylococcus", "submissionValue": "COAGULASE POSITIVE STAPHYLOCOCCUS"}, {"conceptId": "C187905", "definition": "Any fungal organism that is not assigned to the species level but can be assigned to the Coccidioides genus level.", "preferredTerm": "Coccidioides", "submissionValue": "COCCIDIOIDES"}, {"conceptId": "C122046", "definition": "A non-taxonomic grouping of rod-shaped, gram-negative, non-spore forming bacteria that ferment lactose, producing acid and gas.", "preferredTerm": "Coliform Bacteria", "submissionValue": "COLIFORM BACTERIA"}, {"conceptId": "C122267", "definition": "A non-taxonomic grouping of coliform bacteria that can ferment lactose.", "preferredTerm": "Coliform Bacteria, Lactose Fermenting", "submissionValue": "COLIFORM BACTERIA, LACTOSE FERMENTING"}, {"conceptId": "C122268", "definition": "A non-taxonomic grouping of coliform bacteria that cannot ferment lactose.", "preferredTerm": "Coliform Bacteria, Non-Lactose Fermenting", "submissionValue": "COLIFORM BACTERIA, NON-LACTOSE FERMENTING"}, {"conceptId": "C86301", "definition": "Any bacterial organism that can be assigned to the species Collinsella aerofaciens.", "preferredTerm": "Collinsella aerofaciens", "submissionValue": "COLLINSELLA AEROFACIENS", "synonyms": ["Eubacterium aerofaciens"]}, {"conceptId": "C86302", "definition": "Any bacterial organism that can be assigned to the species Collinsella intestinalis.", "preferredTerm": "Collinsella intestinalis", "submissionValue": "COLLINSELLA INTESTINALIS"}, {"conceptId": "C86300", "definition": "Any bacteria that is not assigned to the species level but can be assigned to the Collinsella genus level.", "preferredTerm": "Collinsella", "submissionValue": "COLLINSELLA"}, {"conceptId": "C112240", "definition": "Any viral organism that can be assigned to the species Colorado tick fever virus.", "preferredTerm": "Colorado Tick Fever Virus", "submissionValue": "COLORADO TICK FEVER VIRUS", "synonyms": ["CTFV"]}, {"conceptId": "C86304", "definition": "Any bacterial organism that can be assigned to the species Comamonas terrigena.", "preferredTerm": "Comamonas terrigena", "submissionValue": "COMAMONAS TERRIGENA"}, {"conceptId": "C86305", "definition": "Any bacterial organism that can be assigned to the species Comamonas testosteroni.", "preferredTerm": "Comamonas testosteroni", "submissionValue": "COMAMONAS TESTOSTERONI", "synonyms": ["Pseudomonas testosteroni"]}, {"conceptId": "C86303", "definition": "Any bacteria that is not assigned to the species level but can be assigned to the Comamonas genus level.", "preferredTerm": "Comamonas", "submissionValue": "COMAMONAS"}, {"conceptId": "C123468", "definition": "Any fungal organism that is not assigned to the species level but can be assigned to the Coniochaeta genus level.", "preferredTerm": "Coniochaeta", "submissionValue": "CONIOCHAETA", "synonyms": ["Lecythophora"]}, {"conceptId": "C127699", "definition": "Any fungal organism that can be assigned to the species Coprinellus radians.", "preferredTerm": "Coprinellus radians", "submissionValue": "COPRINELLUS RADIANS", "synonyms": ["Coprinus radians"]}, {"conceptId": "C113205", "definition": "Any viral organism that can be assigned to the family Coronaviridae.", "preferredTerm": "Coronaviridae", "submissionValue": "CORONAVIRIDAE"}, {"conceptId": "C86306", "definition": "Any bacterial organism that can be assigned to the species Corynebacterium accolens.", "preferredTerm": "Corynebacterium accolens", "submissionValue": "CORYNEBACTERIUM ACCOLENS", "synonyms": ["CDC Coryneform Group G-1"]}, {"conceptId": "C86307", "definition": "Any bacterial organism that can be assigned to the species Corynebacterium afermentans.", "preferredTerm": "Corynebacterium afermentans", "submissionValue": "CORYNEBACTERIUM AFERMENTANS", "synonyms": ["Corynebacterium ANF-1"]}, {"conceptId": "C86308", "definition": "Any bacterial organism that can be assigned to the species Corynebacterium amycolatum.", "preferredTerm": "Corynebacterium amycolatum", "submissionValue": "CORYNEBACTERIUM AMYCOLATUM"}, {"conceptId": "C86309", "definition": "Any bacterial organism that can be assigned to the species Corynebacterium argentoratense.", "preferredTerm": "Corynebacterium argentoratense", "submissionValue": "CORYNEBACTERIUM ARGENTORATENSE"}, {"conceptId": "C127700", "definition": "Any bacterial organism that can be assigned to the species Corynebacterium aurimucosum.", "preferredTerm": "Corynebacterium aurimucosum", "submissionValue": "CORYNEBACTERIUM AURIMUCOSUM", "synonyms": ["Corynebacterium nigricans"]}, {"conceptId": "C86310", "definition": "Any bacterial organism that can be assigned to the species Corynebacterium auris.", "preferredTerm": "Corynebacterium auris", "submissionValue": "CORYNEBACTERIUM AURIS"}, {"conceptId": "C86311", "definition": "Any bacterial organism that can be assigned to the species Corynebacterium bovis.", "preferredTerm": "Corynebacterium bovis", "submissionValue": "CORYNEBACTERIUM BOVIS"}, {"conceptId": "C122269", "definition": "Any bacterial organism that can be assigned to the species Corynebacterium coyleae.", "preferredTerm": "Corynebacterium coyleae", "submissionValue": "CORYNEBACTERIUM COYLEAE"}, {"conceptId": "C122270", "definition": "Any bacterial organism that can be assigned to the species Corynebacterium diphtheriae subspecies gravis.", "preferredTerm": "Corynebacterium diphtheriae bv. gravis", "submissionValue": "CORYNEBACTERIUM DIPHTHERIAE TYPE GRAVIS"}, {"conceptId": "C122271", "definition": "Any bacterial organism that can be assigned to the species Corynebacterium diphtheriae subspecies intermedius.", "preferredTerm": "Corynebacterium diphtheriae bv. intermedius", "submissionValue": "CORYNEBACTERIUM DIPHTHERIAE TYPE INTERMEDIUS"}, {"conceptId": "C122272", "definition": "Any bacterial organism that can be assigned to the species Corynebacterium diphtheriae subspecies mitis.", "preferredTerm": "Corynebacterium diphtheriae bv. mitis", "submissionValue": "CORYNEBACTERIUM DIPHTHERIAE TYPE MITIS"}, {"conceptId": "C122273", "definition": "Any bacterial organism that can be assigned to the species Corynebacterium diphtheriae subspecies belfanti.", "preferredTerm": "Corynebacterium diphtheriae bv. belfanti", "submissionValue": "CORYNEBACTERIUM DIPHTHERIAE VAR. BELFANTI"}, {"conceptId": "C86312", "definition": "Any bacterial organism that can be assigned to the species Corynebacterium diphtheriae.", "preferredTerm": "Corynebacterium diphtheriae", "submissionValue": "CORYNEBACTERIUM DIPHTHERIAE"}, {"conceptId": "C86313", "definition": "Any bacterial organism that can be assigned to the species Corynebacterium genitalium.", "preferredTerm": "Corynebacterium genitalium", "submissionValue": "CORYNEBACTERIUM GENITALIUM"}, {"conceptId": "C86955", "definition": "Any bacterial organism that can be assigned to the species Corynebacterium glucuronolyticum.", "preferredTerm": "Corynebacterium glucuronolyticum", "submissionValue": "CORYNEBACTERIUM GLUCURONOLYTICUM"}, {"conceptId": "C76307", "definition": "Any bacterial organism that can be assigned to the species Corynebacterium jeikeium.", "preferredTerm": "Corynebacterium jeikeium", "submissionValue": "CORYNEBACTERIUM JEIKEIUM", "synonyms": ["CDC Coryneform Group JK"]}, {"conceptId": "C86314", "definition": "Any bacterial organism that can be assigned to the species Corynebacterium kutscheri.", "preferredTerm": "Corynebacterium kutscheri", "submissionValue": "CORYNEBACTERIUM KUTSCHERI"}, {"conceptId": "C86315", "definition": "Any bacterial organism that can be assigned to the species Corynebacterium macginleyi.", "preferredTerm": "Corynebacterium macginleyi", "submissionValue": "CORYNEBACTERIUM MACGINLEYI"}, {"conceptId": "C86316", "definition": "Any bacterial organism that can be assigned to the species Corynebacterium matruchotii.", "preferredTerm": "Corynebacterium matruchotii", "submissionValue": "CORYNEBACTERIUM MATRUCHOTII", "synonyms": ["Bacterionema matruchotii"]}, {"conceptId": "C86317", "definition": "Any bacterial organism that can be assigned to the species Corynebacterium minutissimum.", "preferredTerm": "Corynebacterium minutissimum", "submissionValue": "CORYNEBACTERIUM MINUTISSIMUM"}, {"conceptId": "C122274", "definition": "Any bacterial organism that can be assigned to the species Corynebacterium mucifaciens.", "preferredTerm": "Corynebacterium mucifaciens", "submissionValue": "CORYNEBACTERIUM MUCIFACIENS"}, {"conceptId": "C86318", "definition": "Any bacterial organism that can be assigned to the species Corynebacterium pilosum.", "preferredTerm": "Corynebacterium pilosum", "submissionValue": "CORYNEBACTERIUM PILOSUM"}, {"conceptId": "C86319", "definition": "Any bacterial organism that can be assigned to the species Corynebacterium propinquum.", "preferredTerm": "Corynebacterium propinquum", "submissionValue": "CORYNEBACTERIUM PROPINQUUM"}, {"conceptId": "C86320", "definition": "Any bacterial organism that can be assigned to the species Corynebacterium pseudodiphtheriticum.", "preferredTerm": "Corynebacterium pseudodiphtheriticum", "submissionValue": "CORYNEBACTERIUM PSEUDODIPHTHERITICUM", "synonyms": ["Corynebacterium hofmannii"]}, {"conceptId": "C86321", "definition": "Any bacterial organism that can be assigned to the species Corynebacterium pseudotuberculosis.", "preferredTerm": "Corynebacterium pseudotuberculosis", "submissionValue": "CORYNEBACTERIUM PSEUDOTUBERCULOSIS"}, {"conceptId": "C86322", "definition": "Any bacterial organism that can be assigned to the species Corynebacterium renale.", "preferredTerm": "Corynebacterium renale", "submissionValue": "CORYNEBACTERIUM RENALE"}, {"conceptId": "C122275", "definition": "Any bacterial organism that can be assigned to the species Corynebacterium simulans.", "preferredTerm": "Corynebacterium simulans", "submissionValue": "CORYNEBACTERIUM SIMULANS"}, {"conceptId": "C86323", "definition": "Any bacterial organism that can be assigned to the species Corynebacterium striatum.", "preferredTerm": "Corynebacterium striatum", "submissionValue": "CORYNEBACTERIUM STRIATUM"}, {"conceptId": "C114249", "definition": "Any bacterial organism that can be assigned to the species Corynebacterium tuberculostearicum.", "preferredTerm": "Corynebacterium tuberculostearicum", "submissionValue": "CORYNEBACTERIUM TUBERCULOSTEARICUM"}, {"conceptId": "C86324", "definition": "Any bacterial organism that can be assigned to the species Corynebacterium ulcerans.", "preferredTerm": "Corynebacterium ulcerans", "submissionValue": "CORYNEBACTERIUM ULCERANS"}, {"conceptId": "C86325", "definition": "Any bacterial organism that can be assigned to the species Corynebacterium urealyticum.", "preferredTerm": "Corynebacterium urealyticum", "submissionValue": "CORYNEBACTERIUM UREALYTICUM", "synonyms": ["CDC Coryneform Group D-2"]}, {"conceptId": "C86326", "definition": "Any bacterial organism that can be assigned to the species Corynebacterium xerosis.", "preferredTerm": "Corynebacterium xerosis", "submissionValue": "CORYNEBACTERIUM XEROSIS"}, {"conceptId": "C76308", "definition": "Any bacteria that is not assigned to the species level but can be assigned to the Corynebacterium genus level.", "preferredTerm": "Corynebacterium", "submissionValue": "CORYNEBACTERIUM"}, {"conceptId": "C86327", "definition": "Any bacteria whose shape is similar to those bacteria assigned to the Corynebacterium genus and have a cell wall that contains low levels of peptidoglycan and stains pink with the Gram staining technique.", "preferredTerm": "Coryneform Gram Positive Bacillus", "submissionValue": "CORYNEFORM GRAM-POSITIVE BACILLUS", "synonyms": ["Coryneform Gram-positive Rod"]}, {"conceptId": "C86328", "definition": "Any bacterial organism that can be assigned to the species Coxiella burnetii.", "preferredTerm": "Coxiella burnetii", "submissionValue": "COXIELLA BURNETII"}, {"conceptId": "C76309", "definition": "Any bacteria that is not assigned to the species level but can be assigned to the Coxiella genus level.", "preferredTerm": "Coxiella", "submissionValue": "COXIELLA"}, {"conceptId": "C112242", "definition": "Any viral organism that can be assigned to the Human Enterovirus A, B and/or C species and subtype Coxsackie A virus.", "preferredTerm": "Coxsackie A Virus", "submissionValue": "COXSACKIE A VIRUS", "synonyms": ["Coxsackie Virus A"]}, {"conceptId": "C112243", "definition": "Any viral organism that can be assigned to the Human Enterovirus B species and subtype Coxsackie B virus.", "preferredTerm": "Coxsackie B Virus", "submissionValue": "COXSACKIE B VIRUS", "synonyms": ["Coxsackie Virus B"]}, {"conceptId": "C86329", "definition": "Any bacterial organism that can be assigned to the species Cronobacter sakazakii.", "preferredTerm": "Cronobacter sakazakii", "submissionValue": "CRONOBACTER SAKAZAKII", "synonyms": ["Enterobacter sakazakii"]}, {"conceptId": "C127701", "definition": "Any fungal organism that can be assigned to the species Cryptococcus albidus variant albidus.", "preferredTerm": "Cryptococcus albidus Var. albidus", "submissionValue": "CRYPTOCOCCUS ALBIDUS VAR. ALBIDUS"}, {"conceptId": "C114267", "definition": "Any fungal organism that can be assigned to the species Cryptococcus albidus.", "preferredTerm": "Cryptococcus albidus", "submissionValue": "CRYPTOCOCCUS ALBIDUS", "synonyms": ["Rhodotorula albida", "Torula albida", "Torulopsis albida", "Torulopsis nadaensis", "Torulopsis neoformans var. albida"]}, {"conceptId": "C127702", "definition": "Any fungal organism that can be assigned to the species Cryptococcus diffluens.", "preferredTerm": "Cryptococcus diffluens", "submissionValue": "CRYPTOCOCCUS DIFFLUENS", "synonyms": ["Cryptococcus albidus var. diffluens", "Cryptococcus diffluens var. diffluens", "Torulopsis diffluens"]}, {"conceptId": "C114268", "definition": "Any fungal organism that can be assigned to the species Cryptococcus gattii.", "preferredTerm": "Cryptococcus gattii", "submissionValue": "CRYPTOCOCCUS GATTII", "synonyms": ["Cryptococcus bacillisporus"]}, {"conceptId": "C114269", "definition": "Any fungal organism that can be assigned to the species Cryptococcus laurentii.", "preferredTerm": "Cryptococcus laurentii", "submissionValue": "CRYPTOCOCCUS LAURENTII"}, {"conceptId": "C14195", "definition": "Any fungal organism that can be assigned to the species Cryptococcus neoformans.", "preferredTerm": "Cryptococcus neoformans", "submissionValue": "CRYPTOCOCCUS NEOFORMANS", "synonyms": ["Blastomyces neoformans", "Debaryomyces neoformans", "Lipomyces neoformans", "Saccharomyces neoformans", "Torula neoformans", "Torulopsis neoformans"]}, {"conceptId": "C114266", "definition": "Any fungal organism that can be assigned to the species Cryptococcus randhawii.", "preferredTerm": "Cryptococcus randhawii", "submissionValue": "CRYPTOCOCCUS RANDHAWII"}, {"conceptId": "C127703", "definition": "Any fungal organism that can be assigned to the species Cryptococcus terreus.", "preferredTerm": "Cryptococcus terreus", "submissionValue": "CRYPTOCOCCUS TERREUS"}, {"conceptId": "C77184", "definition": "Any fungal organism that is not assigned to the species level but can be assigned to the Cryptococcus genus level.", "preferredTerm": "Cryptococcus", "submissionValue": "CRYPTOCOCCUS"}, {"conceptId": "C122276", "definition": "Any unicellular, eukaryotic organism that can be assigned to the species Cryptosporidium parvum.", "preferredTerm": "Cryptosporidium parvum", "submissionValue": "CRYPTOSPORIDIUM PARVUM"}, {"conceptId": "C77214", "definition": "Any unicellular, eukaryotic organism that is not assigned to the species level but can be assigned to the Cryptosporidium genus level.", "preferredTerm": "Cryptosporidium", "submissionValue": "CRYPTOSPORIDIUM"}, {"conceptId": "C86331", "definition": "Any bacterial organism that can be assigned to the species Cupriavidus pauculus.", "preferredTerm": "Cupriavidus pauculus", "submissionValue": "CUPRIAVIDUS PAUCULUS", "synonyms": ["CDC Group IVc-2", "Ralstonia paucula", "Wautersia paucula"]}, {"conceptId": "C86330", "definition": "Any bacteria that is not assigned to the species level but can be assigned to the Cupriavidus genus level.", "preferredTerm": "Cupriavidus", "submissionValue": "CUPRIAVIDUS"}, {"conceptId": "C184698", "definition": "Any rod-shaped bacteria that also appear curved.", "preferredTerm": "Curved Bacillus", "submissionValue": "CURVED BACILLUS", "synonyms": ["Curved Rods"]}, {"conceptId": "C122277", "definition": "Any fungal organism that is not assigned to the species level but can be assigned to the Curvularia genus level.", "preferredTerm": "Curvularia", "submissionValue": "CURVULARIA"}, {"conceptId": "C122278", "definition": "Any unicellular, eukaryotic organism that can be assigned to the species Cyclospora cayetanensis.", "preferredTerm": "Cyclospora cayetanensis", "submissionValue": "CYCLOSPORA CAYETANENSIS", "synonyms": ["Cyclospora cayetanesis"]}, {"conceptId": "C122047", "definition": "Any unicellular, eukaryotic organism that is not assigned to the species level but can be assigned to the Cyclospora genus level.", "preferredTerm": "Cyclospora", "submissionValue": "CYCLOSPORA"}, {"conceptId": "C127704", "definition": "Any fungal organism that can be assigned to the species Cystobasidium minutum.", "preferredTerm": "Cystobasidium minutum", "submissionValue": "CYSTOBASIDIUM MINUTUM", "synonyms": ["Rhodotorula minuta", "Torula minuta"]}, {"conceptId": "C123647", "definition": "Any unicellular, eukaryotic organism that can be assigned to the species Cystoisospora belli.", "preferredTerm": "Cystoisospora belli", "submissionValue": "CYSTOISOSPORA BELLI", "synonyms": ["Isospora belli"]}, {"conceptId": "C14196", "definition": "Any viral organism that can be assigned to the genus Cytomegalovirus.", "preferredTerm": "Cytomegalovirus", "submissionValue": "CYTOMEGALOVIRUS"}, {"conceptId": "C86333", "definition": "Any bacterial organism that can be assigned to the species Delftia acidovorans.", "preferredTerm": "Delftia acidovorans", "submissionValue": "DELFTIA ACIDOVORANS", "synonyms": ["Comamonas acidovorans", "Pseudomonas acidovorans"]}, {"conceptId": "C86332", "definition": "Any bacteria that is not assigned to the species level but can be assigned to the Delftia genus level.", "preferredTerm": "Delftia", "submissionValue": "DELFTIA"}, {"conceptId": "C122279", "definition": "Any viral organism that can be assigned to the genus Deltacoronavirus.", "preferredTerm": "Deltacoronavirus", "submissionValue": "DELTACORONAVIRUS", "synonyms": ["Coronavirus Group 3"]}, {"conceptId": "C14347", "definition": "Any viral organism that can be assigned to the genus Deltaretrovirus.", "preferredTerm": "Deltaretrovirus", "submissionValue": "DELTARETROVIRUS"}, {"conceptId": "C112266", "definition": "Any viral organism that can be assigned to the Dengue virus serotype 1.", "preferredTerm": "Dengue Virus 1", "submissionValue": "DENGUE VIRUS 1", "synonyms": ["DEN-1", "Dengue Virus Type 1", "DENV-1"]}, {"conceptId": "C112267", "definition": "Any viral organism that can be assigned to the Dengue virus serotype 2.", "preferredTerm": "Dengue Virus 2", "submissionValue": "DENGUE VIRUS 2", "synonyms": ["DEN-2", "Dengue Virus Type 2", "DENV-2"]}, {"conceptId": "C112268", "definition": "Any viral organism that can be assigned to the Dengue virus serotype 3.", "preferredTerm": "Dengue Virus 3", "submissionValue": "DENGUE VIRUS 3", "synonyms": ["DEN-3", "Dengue Virus Type 3", "DENV-3"]}, {"conceptId": "C112269", "definition": "Any viral organism that can be assigned to the Dengue virus serotype 4.", "preferredTerm": "Dengue Virus 4", "submissionValue": "DENGUE VIRUS 4", "synonyms": ["DEN-4", "Dengue Virus Type 4", "DENV-4"]}, {"conceptId": "C112036", "definition": "Any viral organism that can be assigned to the species Dengue virus.", "preferredTerm": "Dengue Virus", "submissionValue": "DENGUE VIRUS"}, {"conceptId": "C86335", "definition": "Any bacterial organism that can be assigned to the species Dermabacter hominis.", "preferredTerm": "Dermabacter hominis", "submissionValue": "DERMABACTER HOMINIS"}, {"conceptId": "C86334", "definition": "Any bacteria that is not assigned to the species level but can be assigned to the Dermabacter genus level.", "preferredTerm": "Dermabacter", "submissionValue": "DERMABACTER"}, {"conceptId": "C86336", "definition": "Any bacterial organism that can be assigned to the species Dermacoccus nishinomiyaensis.", "preferredTerm": "Dermacoccus nishinomiyaensis", "submissionValue": "DERMACOCCUS NISHINOMIYAENSIS", "synonyms": ["Micrococcus nishinomiyaensis"]}, {"conceptId": "C86338", "definition": "Any bacterial organism that can be assigned to the species Dermatophilus congolensis.", "preferredTerm": "Dermatophilus congolensis", "submissionValue": "DERMATOPHILUS CONGOLENSIS"}, {"conceptId": "C86337", "definition": "Any bacteria that is not assigned to the species level but can be assigned to the Dermatophilus genus level.", "preferredTerm": "Dermatophilus", "submissionValue": "DERMATOPHILUS"}, {"conceptId": "C86340", "definition": "Any bacterial organism that can be assigned to the species Desulfovibrio desulfuricans.", "preferredTerm": "Desulfovibrio desulfuricans", "submissionValue": "DESULFOVIBRIO DESULFURICANS"}, {"conceptId": "C86341", "definition": "Any bacterial organism that can be assigned to the species Desulfovibrio fairfieldensis.", "preferredTerm": "Desulfovibrio fairfieldensis", "submissionValue": "DESULFOVIBRIO FAIRFIELDENSIS"}, {"conceptId": "C86342", "definition": "Any bacterial organism that can be assigned to the species Desulfovibrio piger.", "preferredTerm": "Desulfovibrio piger", "submissionValue": "DESULFOVIBRIO PIGER", "synonyms": ["Desulfomonas pigra"]}, {"conceptId": "C86339", "definition": "Any bacteria that is not assigned to the species level but can be assigned to the Desulfovibrio genus level.", "preferredTerm": "Desulfovibrio", "submissionValue": "DESULFOVIBRIO", "synonyms": ["Desulfomonas"]}, {"conceptId": "C122280", "definition": "Any bacterial organism that can be assigned to the species Dialister micraerophilus.", "preferredTerm": "Dialister micraerophilus", "submissionValue": "DIALISTER MICRAEROPHILUS"}, {"conceptId": "C122281", "definition": "Any bacterial organism that can be assigned to the species Dialister pneumosintes.", "preferredTerm": "Dialister pneumosintes", "submissionValue": "DIALISTER PNEUMOSINTES", "synonyms": ["Bacillus pneumosintes", "Bacteroides pneumosintes"]}, {"conceptId": "C127705", "definition": "Any bacterial organism that can be assigned to the species Dickeya dadantii.", "preferredTerm": "Dickeya dadantii", "submissionValue": "DICKEYA DADANTII"}, {"conceptId": "C122282", "definition": "Any unicellular, eukaryotic organism that can be assigned to the species Dientamoeba fragilis.", "preferredTerm": "Dientamoeba fragilis", "submissionValue": "DIENTAMOEBA FRAGILIS"}, {"conceptId": "C187906", "definition": "Any bacterial organism that can be assigned to the species Escherichia coli, and is considered as the pathotype diffusely adhering. DAEC causes urinary tract infections (UTIs), pregnancy complications, and diarrhea in children of ages 18 months to 5 years.", "preferredTerm": "Diffusely Adhering Escherichia coli", "submissionValue": "DIFFUSELY ADHERING ESCHERICHIA COLI", "synonyms": ["DAEC", "Diffusely Adhering E. coli"]}, {"conceptId": "C122283", "definition": "Any nematode parasite that is not assigned to the species level but can be assigned to the Dipetalonema genus level.", "preferredTerm": "Dipetalonema", "submissionValue": "DIPETALONEMA"}, {"conceptId": "C86343", "definition": "Any of a number of rod-shaped bacteria that resemble Corynebacterium diphtheriae, either in morphology or etiology.", "preferredTerm": "Diptheroid Bacillus", "submissionValue": "DIPHTHEROID BACILLUS"}, {"conceptId": "C122284", "definition": "Any cestode parasite that can be assigned to the species Diphyllobothrium latum.", "preferredTerm": "Diphyllobothrium latum", "submissionValue": "DIPHYLLOBOTHRIUM LATUM", "synonyms": ["Broad Fish Tapeworm"]}, {"conceptId": "C122285", "definition": "Any cestode parasite that can be assigned to the species Dipylidium caninum.", "preferredTerm": "Dipylidium caninum", "submissionValue": "DIPYLIDIUM CANINUM", "synonyms": ["Cucumber Tapeworm", "Double-pore Tapeworm", "Flea Tapeworm"]}, {"conceptId": "C122286", "definition": "Any bacterial organism that can be assigned to the species Dolosigranulum pigrum.", "preferredTerm": "Dolosigranulum pigrum", "submissionValue": "DOLOSIGRANULUM PIGRUM"}, {"conceptId": "C122287", "definition": "Any bacterial organism that can be assigned to the genus Dorea.", "preferredTerm": "Dorea", "submissionValue": "DOREA"}, {"conceptId": "C122288", "definition": "Any nematode parasite that can be assigned to the species Dracunculus medinensis.", "preferredTerm": "Dracunculus medinensis", "submissionValue": "DRACUNCULUS MEDINENSIS", "synonyms": ["Guinea worm"]}, {"conceptId": "C112271", "definition": "Any viral organism that can be assigned to the genus Ebola virus.", "preferredTerm": "Ebola Virus", "submissionValue": "EBOLA VIRUS", "synonyms": ["EBOV"]}, {"conceptId": "C122289", "definition": "Any cestode parasite that can be assigned to the species Echinococcus granulosus.", "preferredTerm": "Echinococcus granulosus", "submissionValue": "ECHINOCOCCUS GRANULOSUS", "synonyms": ["Hydatid Worm", "Hyper Tapeworm"]}, {"conceptId": "C122290", "definition": "Any cestode parasite that can be assigned to the species Echinococcus multilocularis.", "preferredTerm": "Echinococcus multilocularis", "submissionValue": "ECHINOCOCCUS MULTILOCULARIS"}, {"conceptId": "C122291", "definition": "Any cestode parasite that can be assigned to the species Echinococcus vogeli.", "preferredTerm": "Echinococcus vogeli", "submissionValue": "ECHINOCOCCUS VOGELI"}, {"conceptId": "C112272", "definition": "Any viral organism that can be assigned to the species Echovirus.", "preferredTerm": "Echovirus", "submissionValue": "ECHOVIRUS"}, {"conceptId": "C86345", "definition": "Any bacterial organism that can be assigned to the species Edwardsiella hoshinae.", "preferredTerm": "Edwardsiella hoshinae", "submissionValue": "EDWARDSIELLA HOSHINAE"}, {"conceptId": "C86346", "definition": "Any bacterial organism that can be assigned to the species Edwardsiella ictaluri.", "preferredTerm": "Edwardsiella ictaluri", "submissionValue": "EDWARDSIELLA ICTALURI"}, {"conceptId": "C86347", "definition": "Any bacterial organism that can be assigned to the species Edwardsiella tarda.", "preferredTerm": "Edwardsiella tarda", "submissionValue": "EDWARDSIELLA TARDA"}, {"conceptId": "C86344", "definition": "Any bacteria that is not assigned to the species level but can be assigned to the Edwardsiella genus level.", "preferredTerm": "Edwardsiella", "submissionValue": "EDWARDSIELLA"}, {"conceptId": "C86349", "definition": "Any bacterial organism that can be assigned to the species Eggerthella lenta.", "preferredTerm": "Eggerthella lenta", "submissionValue": "EGGERTHELLA LENTA", "synonyms": ["Eubacterium lentum"]}, {"conceptId": "C86348", "definition": "Any bacteria that is not assigned to the species level but can be assigned to the Eggerthella genus level.", "preferredTerm": "Eggerthella", "submissionValue": "EGGERTHELLA"}, {"conceptId": "C122292", "definition": "Any bacterial organism that is not assigned to the species level but can be assigned to the Ehrlichia genus level.", "preferredTerm": "Ehrlichia", "submissionValue": "EHRLICHIA", "synonyms": ["Cowdria", "Kurlovia", "Nicollea"]}, {"conceptId": "C86351", "definition": "Any bacterial organism that can be assigned to the species Eikenella corrodens.", "preferredTerm": "Eikenella corrodens", "submissionValue": "EIKENELLA CORRODENS"}, {"conceptId": "C86350", "definition": "Any bacteria that is not assigned to the species level but can be assigned to the Eikenella genus level.", "preferredTerm": "Eikenella", "submissionValue": "EIKENELLA"}, {"conceptId": "C86353", "definition": "Any bacterial organism that can be assigned to the species Elizabethkingia meningoceptica.", "preferredTerm": "Elizabethkingia meningoceptica", "submissionValue": "ELIZABETHKINGIA MENINGOCEPTICA", "synonyms": ["Chryseobacterium meningosepticum", "Flavobacterium meningosepticum"]}, {"conceptId": "C86352", "definition": "Any bacteria that is not assigned to the species level but can be assigned to the Elizabethkingia genus level.", "preferredTerm": "Elizabethkingia", "submissionValue": "ELIZABETHKINGIA"}, {"conceptId": "C86355", "definition": "Any bacterial organism that can be assigned to the species Empedobacter brevis.", "preferredTerm": "Empedobacter brevis", "submissionValue": "EMPEDOBACTER BREVIS", "synonyms": ["Flavobacterium breve"]}, {"conceptId": "C86354", "definition": "Any bacteria that is not assigned to the species level but can be assigned to the Empedobacter genus level.", "preferredTerm": "Empedobacter", "submissionValue": "EMPEDOBACTER"}, {"conceptId": "C122293", "definition": "Any fungal organism that is not assigned to the species level but can be assigned to the Encephalitozoon genus level.", "preferredTerm": "Encephalitozoon", "submissionValue": "ENCEPHALITOZOON", "synonyms": ["Septata"]}, {"conceptId": "C122294", "definition": "Any unicellular, eukaryotic organism that can be assigned to the species Endolimax nana.", "preferredTerm": "Endolimax nana", "submissionValue": "ENDOLIMAX NANA"}, {"conceptId": "C122295", "definition": "Any unicellular, eukaryotic organism that can be assigned to the species Entamoeba coli.", "preferredTerm": "Entamoeba coli", "submissionValue": "ENTAMOEBA COLI"}, {"conceptId": "C187907", "definition": "Any amoebic organism that can be assigned to the species Entamoeba dispar.", "preferredTerm": "Entamoeba dispar", "submissionValue": "ENTAMOEBA DISPAR"}, {"conceptId": "C122296", "definition": "Any unicellular, eukaryotic organism that can be assigned to the species Entamoeba hartmanni.", "preferredTerm": "Entamoeba hartmanni", "submissionValue": "ENTAMOEBA HARTMANNI"}, {"conceptId": "C122297", "definition": "Any unicellular, eukaryotic organism that can be assigned to the species Entamoeba histolytica.", "preferredTerm": "Entamoeba histolytica", "submissionValue": "ENTAMOEBA HISTOLYTICA"}, {"conceptId": "C122298", "definition": "Any unicellular, eukaryotic organism that can be assigned to the species Entamoeba polecki.", "preferredTerm": "Entamoeba polecki", "submissionValue": "ENTAMOEBA POLECKI"}, {"conceptId": "C122048", "definition": "Any unicellular, eukaryotic organism that is not assigned to the species level but can be assigned to the Entamoeba genus level.", "preferredTerm": "Entamoeba", "submissionValue": "ENTAMOEBA"}, {"conceptId": "C127706", "definition": "Any rod-shaped bacterial organism that does not require oxygen to grow or respirate, cannot be assigned to a specific genus or species, has a cell wall that stains Gram-negative, and that occurs normally or pathogenically in the intestinal tracts of animals.", "preferredTerm": "Enteric Bacteria", "submissionValue": "ENTERIC BACTERIA"}, {"conceptId": "C187908", "definition": "Any bacterial organism that can be assigned to the species Escherichia coli, and is considered as the pathotype enteroaggregative. EAEC causes acute or persistent watery diarrhea prevalent in developing countries and in the immunocompromised host.", "preferredTerm": "Enteroaggregative Escherichia coli", "submissionValue": "ENTEROAGGREGATIVE ESCHERICHIA COLI", "synonyms": ["EAEC", "Enteroaggregative E. coli"]}, {"conceptId": "C86356", "definition": "Any bacterial organism that can be assigned to the species Enterobacter aerogenes.", "preferredTerm": "Enterobacter aerogenes", "submissionValue": "ENTEROBACTER AEROGENES", "synonyms": ["Aerobacter aerogenes", "Klebsiella aerogenes"]}, {"conceptId": "C86357", "definition": "Any bacterial organism that can be assigned to the species Enterobacter amnigenus.", "preferredTerm": "Enterobacter amnigenus", "submissionValue": "ENTEROBACTER AMNIGENUS", "synonyms": ["Enterobacter amnigenus I"]}, {"conceptId": "C86358", "definition": "Any bacterial organism that can be assigned to the species Enterobacter asburiae.", "preferredTerm": "Enterobacter asburiae", "submissionValue": "ENTEROBACTER ASBURIAE", "synonyms": ["CDC Enteric Group 17"]}, {"conceptId": "C86359", "definition": "Any bacterial organism that can be assigned to the species Enterobacter cancerogenus.", "preferredTerm": "Enterobacter cancerogenus", "submissionValue": "ENTEROBACTER CANCEROGENUS", "synonyms": ["CDC Enteric Group 19", "Enterobacter taylorae"]}, {"conceptId": "C122299", "definition": "A non-taxonomic grouping of bacterial species that are phenotypically or genetically similar to the Enterobacter cloacae species.", "preferredTerm": "Enterobacter cloacae Complex", "submissionValue": "ENTEROBACTER CLOACAE COMPLEX"}, {"conceptId": "C86360", "definition": "Any bacterial organism that can be assigned to the species Enterobacter cloacae.", "preferredTerm": "Enterobacter cloacae", "submissionValue": "ENTEROBACTER CLOACAE"}, {"conceptId": "C86361", "definition": "Any bacterial organism that can be assigned to the species Enterobacter gergoviae.", "preferredTerm": "Enterobacter gergoviae", "submissionValue": "ENTEROBACTER GERGOVIAE"}, {"conceptId": "C86362", "definition": "Any bacterial organism that can be assigned to the species Enterobacter hormaechei.", "preferredTerm": "Enterobacter hormaechei", "submissionValue": "ENTEROBACTER HORMAECHEI", "synonyms": ["CDC Enteric Group 75"]}, {"conceptId": "C76310", "definition": "Any bacteria that is not assigned to the species level but can be assigned to the Enterobacter genus level.", "preferredTerm": "Enterobacter", "submissionValue": "ENTEROBACTER"}, {"conceptId": "C85932", "definition": "Any bacteria that is not assigned to the species level but can be assigned to the Enterobacteriaceae family level.", "preferredTerm": "Enterobacteriaceae", "submissionValue": "ENTEROBACTERIACEAE", "synonyms": ["Enterobacteraceae"]}, {"conceptId": "C122300", "definition": "Any nematode parasite that can be assigned to the species Enterobius vermicularis.", "preferredTerm": "Enterobius vermicularis", "submissionValue": "ENTEROBIUS VERMICULARIS"}, {"conceptId": "C86364", "definition": "Any bacterial organism that can be assigned to the species Enterococcus avium.", "preferredTerm": "Enterococcus avium", "submissionValue": "ENTEROCOCCUS AVIUM", "synonyms": ["Streptococcus avium"]}, {"conceptId": "C86365", "definition": "Any bacterial organism that can be assigned to the species Enterococcus casseliflavus.", "preferredTerm": "Enterococcus casseliflavus", "submissionValue": "ENTEROCOCCUS CASSELIFLAVUS"}, {"conceptId": "C86366", "definition": "Any bacterial organism that can be assigned to the species Enterococcus dispar.", "preferredTerm": "Enterococcus dispar", "submissionValue": "ENTEROCOCCUS DISPAR"}, {"conceptId": "C86367", "definition": "Any bacterial organism that can be assigned to the species Enterococcus durans.", "preferredTerm": "Enterococcus durans", "submissionValue": "ENTEROCOCCUS DURANS", "synonyms": ["Streptococcus durans"]}, {"conceptId": "C86368", "definition": "Any bacterial organism that can be assigned to the species Enterococcus faecalis.", "preferredTerm": "Enterococcus faecalis", "submissionValue": "ENTEROCOCCUS FAECALIS", "synonyms": ["Streptococcus faecalis"]}, {"conceptId": "C86369", "definition": "Any bacterial organism that can be assigned to the species Enterococcus faecium.", "preferredTerm": "Enterococcus faecium", "submissionValue": "ENTEROCOCCUS FAECIUM", "synonyms": ["Streptococcus faecium"]}, {"conceptId": "C86370", "definition": "Any bacterial organism that can be assigned to the species Enterococcus gallinarum.", "preferredTerm": "Enterococcus gallinarum", "submissionValue": "ENTEROCOCCUS GALLINARUM"}, {"conceptId": "C86371", "definition": "Any bacterial organism that can be assigned to the species Enterococcus hirae.", "preferredTerm": "Enterococcus hirae", "submissionValue": "ENTEROCOCCUS HIRAE"}, {"conceptId": "C86372", "definition": "Any bacterial organism that can be assigned to the species Enterococcus malodoratus.", "preferredTerm": "Enterococcus malodoratus", "submissionValue": "ENTEROCOCCUS MALODORATUS"}, {"conceptId": "C86373", "definition": "Any bacterial organism that can be assigned to the species Enterococcus mundtii.", "preferredTerm": "Enterococcus mundtii", "submissionValue": "ENTEROCOCCUS MUNDTII"}, {"conceptId": "C86374", "definition": "Any bacterial organism that can be assigned to the species Enterococcus pseudoavium.", "preferredTerm": "Enterococcus pseudoavium", "submissionValue": "ENTEROCOCCUS PSEUDOAVIUM"}, {"conceptId": "C86375", "definition": "Any bacterial organism that can be assigned to the species Enterococcus raffinosus.", "preferredTerm": "Enterococcus raffinosus", "submissionValue": "ENTEROCOCCUS RAFFINOSUS"}, {"conceptId": "C122301", "definition": "Any bacterial organism that can be assigned to the species Enterococcus saccharolyticus.", "preferredTerm": "Enterococcus saccharolyticus", "submissionValue": "ENTEROCOCCUS SACCHAROLYTICUS", "synonyms": ["Streptococcus saccharolyticus"]}, {"conceptId": "C114243", "definition": "Any bacterial organism that can be assigned to the species Enterococcus thailandicus.", "preferredTerm": "Enterococcus thailandicus", "submissionValue": "ENTEROCOCCUS THAILANDICUS", "synonyms": ["Enterococcus sanguinicola"]}, {"conceptId": "C76311", "definition": "Any bacteria that is not assigned to the species level but can be assigned to the Enterococcus genus level.", "preferredTerm": "Enterococcus", "submissionValue": "ENTEROCOCCUS"}, {"conceptId": "C122302", "definition": "Any fungal organism that is not assigned to the species level but can be assigned to the Enterocytozoon genus level.", "preferredTerm": "Enterocytozoon", "submissionValue": "ENTEROCYTOZOON"}, {"conceptId": "C184688", "definition": "Any bacterial organism that can be assigned to the species Escherichia coli, and is considered as the pathotype enterohemorrhagic. EHEC is a subset of STEC, produces shiga toxin, and causes hemorrhagic colitis associated with the hemolytic uremic syndrome.", "preferredTerm": "Enterohemorrhagic Escherichia coli", "submissionValue": "ENTEROHEMORRHAGIC ESCHERICHIA COLI", "synonyms": ["EHEC", "Enterohemorrhagic E. coli"]}, {"conceptId": "C187909", "definition": "Any bacterial organism that can be assigned to the species Escherichia coli, and is considered as the pathotype enterohemorrhagic. EIEC causes dysentery identical to that caused by Shigella sonnei.", "preferredTerm": "Enteroinvasive Escherichia coli", "submissionValue": "ENTEROINVASIVE ESCHERICHIA COLI", "synonyms": ["EIEC", "Enteroinvasive E. coli"]}, {"conceptId": "C122303", "definition": "Any unicellular, eukaryotic organism that can be assigned to the species Enteromonas hominis.", "preferredTerm": "Enteromonas hominis", "submissionValue": "ENTEROMONAS HOMINIS"}, {"conceptId": "C184690", "definition": "Any bacterial organism that can be assigned to the species Escherichia coli, and is considered as the pathotype enteropathogenic. EPEC causes acute and chronic watery diarrhea in infants and children.", "preferredTerm": "Enteropathogenic Escherichia coli", "submissionValue": "ENTEROPATHOGENIC ESCHERICHIA COLI", "synonyms": ["Enteropathogenic E. coli", "EPEC"]}, {"conceptId": "C187910", "definition": "Any bacterial organism that can be assigned to the species Escherichia coli, and is considered as the pathotype enterotoxigenic. ETEC causes watery diarrhea in infants and travelers.", "preferredTerm": "Enterotoxigenic Escherichia coli", "submissionValue": "ENTEROTOXIGENIC ESCHERICHIA COLI", "synonyms": ["Enterotoxigenic E. coli", "ETEC"]}, {"conceptId": "C14203", "definition": "Any viral organism that can be assigned to the genus Enterovirus.", "preferredTerm": "Enterovirus", "submissionValue": "ENTEROVIRUS"}, {"conceptId": "C122304", "definition": "Any fungal organism that is not assigned to the species level but can be assigned to the Epicoccum genus level.", "preferredTerm": "Epicoccum", "submissionValue": "EPICOCCUM"}, {"conceptId": "C127707", "definition": "Any fungal organism that can be assigned to the species Epidermophyton floccosum.", "preferredTerm": "Epidermophyton floccosum", "submissionValue": "EPIDERMOPHYTON FLOCCOSUM", "synonyms": ["Acrothecium floccosum", "Epidermophyton floccosum var. nigricans"]}, {"conceptId": "C14204", "definition": "Any viral organism that can be assigned to the species Epstein-Barr virus.", "preferredTerm": "Epstein-Barr Virus", "submissionValue": "EPSTEIN-BARR VIRUS", "synonyms": ["EBV", "HHV-4", "Human Gammaherpesvirus 4", "Human Herpesvirus 4"]}, {"conceptId": "C86377", "definition": "Any bacterial organism that can be assigned to the species Erysipelothrix rhusiopathiae.", "preferredTerm": "Erysipelothrix rhusiopathiae", "submissionValue": "ERYSIPELOTHRIX RHUSIOPATHIAE"}, {"conceptId": "C86376", "definition": "Any bacteria that is not assigned to the species level but can be assigned to the Erysipelothrix genus level.", "preferredTerm": "Erysipelothrix", "submissionValue": "ERYSIPELOTHRIX", "synonyms": ["Erysipelothrix insidiosa"]}, {"conceptId": "C86378", "definition": "Any bacterial organism that can be assigned to the species Escherichia albertii.", "preferredTerm": "Escherichia albertii", "submissionValue": "ESCHERICHIA ALBERTII"}, {"conceptId": "C86379", "definition": "Any bacterial organism that can be assigned to the species Escherichia blattae.", "preferredTerm": "Escherichia blattae", "submissionValue": "ESCHERICHIA BLATTAE"}, {"conceptId": "C186197", "definition": "Any bacterial organism that can be assigned to the species Escherichia coli and strain K1.", "preferredTerm": "Escherichia coli Strain K1", "submissionValue": "ESCHERICHIA COLI K1"}, {"conceptId": "C86881", "definition": "Any bacterial organism that can be assigned to the species Escherichia coli and strain O111.", "preferredTerm": "Escherichia coli strain O111", "submissionValue": "ESCHERICHIA COLI O111"}, {"conceptId": "C86882", "definition": "Any bacterial organism that can be assigned to the species Escherichia coli and strain O157, but does not include the H7 substrain.", "preferredTerm": "Escherichia coli strain O157", "submissionValue": "ESCHERICHIA COLI O157 (NOT H7)"}, {"conceptId": "C86883", "definition": "Any bacterial organism that can be assigned to the species Escherichia coli and strain O157:H7.", "preferredTerm": "Escherichia coli strain O157:H7", "submissionValue": "ESCHERICHIA COLI O157:H7"}, {"conceptId": "C86884", "definition": "Any bacterial organism that can be assigned to the species Escherichia coli and strain O26.", "preferredTerm": "Escherichia coli strain O26", "submissionValue": "ESCHERICHIA COLI O26"}, {"conceptId": "C14206", "definition": "Any bacterial organism that can be assigned to the species Escherichia coli.", "preferredTerm": "Escherichia coli", "submissionValue": "ESCHERICHIA COLI", "synonyms": ["E. coli"]}, {"conceptId": "C122305", "definition": "Any bacterial organism that can be assigned to the species Escherichia coli and produces extended-spectrum beta-lactamases (ESBL).", "preferredTerm": "Escherichia coli, Extended-spectrum Beta-lactamase Positive", "submissionValue": "ESCHERICHIA COLI, ESBL", "synonyms": ["Escherichia coli, Extended-spectrum Beta-lactamases"]}, {"conceptId": "C86380", "definition": "Any bacterial organism that can be assigned to the species Escherichia fergusonii.", "preferredTerm": "Escherichia fergusonii", "submissionValue": "ESCHERICHIA FERGUSONII", "synonyms": ["CDC Enteric Group 10"]}, {"conceptId": "C86381", "definition": "Any bacterial organism that can be assigned to the species Escherichia hermannii.", "preferredTerm": "Escherichia hermannii", "submissionValue": "ESCHERICHIA HERMANNII", "synonyms": ["CDC Enteric Group 11"]}, {"conceptId": "C86382", "definition": "Any bacterial organism that can be assigned to the species Escherichia vulneris.", "preferredTerm": "Escherichia vulneris", "submissionValue": "ESCHERICHIA VULNERIS", "synonyms": ["CDC Enteric Group 1"]}, {"conceptId": "C77208", "definition": "Any bacteria that is not assigned to the species level but can be assigned to the Escherichia genus level.", "preferredTerm": "Escherichia", "submissionValue": "ESCHERICHIA"}, {"conceptId": "C86384", "definition": "Any bacterial organism that can be assigned to the species Eubacterium adactolyticum.", "preferredTerm": "Eubacterium alactolyticum", "submissionValue": "EUBACTERIUM ALACTOLYTICUM"}, {"conceptId": "C86385", "definition": "Any bacterial organism that can be assigned to the species Eubacterium contortum.", "preferredTerm": "Eubacterium contortum", "submissionValue": "EUBACTERIUM CONTORTUM"}, {"conceptId": "C86386", "definition": "Any bacterial organism that can be assigned to the species Eubacterium limosum.", "preferredTerm": "Eubacterium limosum", "submissionValue": "EUBACTERIUM LIMOSUM"}, {"conceptId": "C86387", "definition": "Any bacterial organism that can be assigned to the species Eubacterium nodatum.", "preferredTerm": "Eubacterium nodatum", "submissionValue": "EUBACTERIUM NODATUM"}, {"conceptId": "C86388", "definition": "Any bacterial organism that can be assigned to the species Eubacterium rectale.", "preferredTerm": "Eubacterium rectale", "submissionValue": "EUBACTERIUM RECTALE"}, {"conceptId": "C86389", "definition": "Any bacterial organism that can be assigned to the species Eubacterium ventriosum.", "preferredTerm": "Eubacterium ventriosum", "submissionValue": "EUBACTERIUM VENTRIOSUM"}, {"conceptId": "C86383", "definition": "Any bacteria that is not assigned to the species level but can be assigned to the Eubacterium genus level.", "preferredTerm": "Eubacterium", "submissionValue": "EUBACTERIUM"}, {"conceptId": "C127708", "definition": "Any fungal organism that can be assigned to the species Eurotium herbariorum.", "preferredTerm": "Eurotium herbariorum", "submissionValue": "EUROTIUM HERBARIORUM", "synonyms": ["Aspergillus glaucus", "Aspergillus herbariorum"]}, {"conceptId": "C86391", "definition": "Any bacterial organism that can be assigned to the species Ewingella americana.", "preferredTerm": "Ewingella americana", "submissionValue": "EWINGELLA AMERICANA"}, {"conceptId": "C86390", "definition": "Any bacteria that is not assigned to the species level but can be assigned to the Ewingella genus level.", "preferredTerm": "Ewingella", "submissionValue": "EWINGELLA"}, {"conceptId": "C86886", "definition": "Any bacterial organism that can be assigned to the species Exiguobacterium acetylicum.", "preferredTerm": "Exiguobacterium acetylicum", "submissionValue": "EXIGUOBACTERIUM ACETYLICUM", "synonyms": ["Brevibacterium acetylicum"]}, {"conceptId": "C86885", "definition": "Any bacteria that is not assigned to the species level but can be assigned to the Exiguobacterium genus level.", "preferredTerm": "Exiguobacterium", "submissionValue": "EXIGUOBACTERIUM"}, {"conceptId": "C127709", "definition": "Any fungal organism that can be assigned to the species Exophiala dermatitidis.", "preferredTerm": "Exophiala dermatitidis", "submissionValue": "EXOPHIALA DERMATITIDIS", "synonyms": ["Wangiella dermatitidis"]}, {"conceptId": "C127710", "definition": "Any fungal organism that can be assigned to the species Exophiala jeanselmei.", "preferredTerm": "Exophiala jeanselmei", "submissionValue": "EXOPHIALA JEANSELMEI", "synonyms": ["Phialophora jeanselmei", "Pullularia jeanselmei", "Torula jeanselmei"]}, {"conceptId": "C122306", "definition": "Any fungal organism that is not assigned to the species level but can be assigned to the Exserohilum genus level.", "preferredTerm": "Exserohilum", "submissionValue": "EXSEROHILUM"}, {"conceptId": "C122307", "definition": "Any bacterial organism that can be assigned to the species Facklamia hominis.", "preferredTerm": "Facklamia hominis", "submissionValue": "FACKLAMIA HOMINIS"}, {"conceptId": "C86392", "definition": "Any bacteria that is not assigned to the species level but can be assigned to the Facklamia genus level.", "preferredTerm": "Facklamia", "submissionValue": "FACKLAMIA"}, {"conceptId": "C86394", "definition": "Any bacterial organism that can be assigned to the species Faecalibacterium prausnitzii.", "preferredTerm": "Faecalibacterium prausnitzii", "submissionValue": "FAECALIBACTERIUM PRAUSNITZII", "synonyms": ["Fusobacterium prausnitzii"]}, {"conceptId": "C86393", "definition": "Any bacteria that is not assigned to the species level but can be assigned to the Faecalibacterium genus level.", "preferredTerm": "Faecalibacterium", "submissionValue": "FAECALIBACTERIUM"}, {"conceptId": "C122308", "definition": "Any trematode parasite that can be assigned to the species Fasciola hepatica.", "preferredTerm": "Fasciola hepatica", "submissionValue": "FASCIOLA HEPATICA", "synonyms": ["Sheep liver fluke"]}, {"conceptId": "C122309", "definition": "Any trematode parasite that can be assigned to the species Fasciolopsis buski.", "preferredTerm": "Fasciolopsis buski", "submissionValue": "FASCIOLOPSIS BUSKI"}, {"conceptId": "C86395", "definition": "Any rod-shaped, anaerobic bacteria that can convert carbohydrates into acids and alcohols and has a cell wall contains low levels of peptidoglycan and stains pink with the Gram staining technique.", "preferredTerm": "Fermentative Gram Negative Bacillus", "submissionValue": "FERMENTATIVE GRAM-NEGATIVE BACILLUS", "synonyms": ["Fermentative Gram-negative Rod"]}, {"conceptId": "C114265", "definition": "Any fungal organism that can be assigned to the species Filobasidium uniguttulatum.", "preferredTerm": "Filobasidium uniguttulatum", "submissionValue": "FILOBASIDIUM UNIGUTTULATUM", "synonyms": ["Cryptococcus neoformans var. uniguttulatus", "Cryptococcus uniguttulatus", "Eutorulopsis uniguttulata"]}, {"conceptId": "C112031", "definition": "Any viral organism that can be assigned to the family Filoviridae.", "preferredTerm": "Filoviridae", "submissionValue": "FILOVIRIDAE", "synonyms": ["Filovirus"]}, {"conceptId": "C86888", "definition": "Any bacterial organism that can be assigned to the species Finegoldia magna.", "preferredTerm": "Finegoldia magna", "submissionValue": "FINEGOLDIA MAGNA", "synonyms": ["Peptostreptococcus magnus"]}, {"conceptId": "C86887", "definition": "Any bacteria that is not assigned to the species level but can be assigned to the Finegoldia genus level.", "preferredTerm": "Finegoldia", "submissionValue": "FINEGOLDIA"}, {"conceptId": "C14208", "definition": "Any viral organism that can be assigned to the genus Flavivirus.", "preferredTerm": "Flavivirus", "submissionValue": "FLAVIVIRUS"}, {"conceptId": "C76320", "definition": "Any bacteria that is not assigned to the species level but can be assigned to the Flavobacterium genus level.", "preferredTerm": "Flavobacterium", "submissionValue": "FLAVOBACTERIUM"}, {"conceptId": "C122310", "definition": "Any bacterial organism that is not assigned to the species level but can be assigned to the Flavonifractor genus level.", "preferredTerm": "Flavonifractor", "submissionValue": "FLAVONIFRACTOR"}, {"conceptId": "C122311", "definition": "Any fungal organism that is not assigned to the species level but can be assigned to the Fonsecaea genus level.", "preferredTerm": "Fonsecaea", "submissionValue": "FONSECAEA"}, {"conceptId": "C86397", "definition": "Any bacterial organism that can be assigned to the species Francisella tularensis.", "preferredTerm": "Francisella tularensis", "submissionValue": "FRANCISELLA TULARENSIS", "synonyms": ["Pasteurella tularensis"]}, {"conceptId": "C86396", "definition": "Any bacteria that is not assigned to the species level but can be assigned to the Francisella genus level.", "preferredTerm": "Francisella", "submissionValue": "FRANCISELLA"}, {"conceptId": "C14209", "definition": "Any organism assigned to the kingdom Fungi.", "preferredTerm": "Fungus", "submissionValue": "FUNGI"}, {"conceptId": "C127711", "definition": "Any fungal organism that can be assigned to the species Fusarium chlamydosporum.", "preferredTerm": "Fusarium chlamydosporum", "submissionValue": "FUSARIUM CHLAMYDOSPORUM"}, {"conceptId": "C127712", "definition": "Any fungal organism that can be assigned to the species Fusarium incarnatum.", "preferredTerm": "Fusarium incarnatum", "submissionValue": "FUSARIUM INCARNATUM", "synonyms": ["Fusarium pallidoroseum", "Fusarium semitectum"]}, {"conceptId": "C187911", "definition": "Any fungal organism that can be assigned to the species Fusarium proliferatum.", "preferredTerm": "Fusarium proliferatum", "submissionValue": "FUSARIUM PROLIFERATUM"}, {"conceptId": "C128551", "definition": "Any fungal organism that can be assigned to the species Fusarium solani.", "preferredTerm": "Fusarium solani", "submissionValue": "FUSARIUM SOLANI", "synonyms": ["Neocosmospora solani"]}, {"conceptId": "C77185", "definition": "Any fungal organism that is not assigned to the species level but can be assigned to the Fusarium genus level.", "preferredTerm": "Fusarium", "submissionValue": "FUSARIUM"}, {"conceptId": "C86398", "definition": "Any bacterial organism that can be assigned to the species Fusobacterium gonidiaformans.", "preferredTerm": "Fusobacterium gonidiaformans", "submissionValue": "FUSOBACTERIUM GONIDIAFORMANS"}, {"conceptId": "C86399", "definition": "Any bacterial organism that can be assigned to the species Fusobacterium mortiferum.", "preferredTerm": "Fusobacterium mortiferum", "submissionValue": "FUSOBACTERIUM MORTIFERUM"}, {"conceptId": "C114252", "definition": "Any bacterial organism that can be assigned to the species Fusobacterium naviforme.", "preferredTerm": "Fusobacterium naviforme", "submissionValue": "FUSOBACTERIUM NAVIFORME", "synonyms": ["Bacillus naviformis", "Fusibacterium naviforme", "Pseudobacterium naviformis", "Ristella naviformis"]}, {"conceptId": "C86400", "definition": "Any bacterial organism that can be assigned to the species Fusobacterium necrogenes.", "preferredTerm": "Fusobacterium necrogenes", "submissionValue": "FUSOBACTERIUM NECROGENES"}, {"conceptId": "C86401", "definition": "Any bacterial organism that can be assigned to the species Fusobacterium necrophorum.", "preferredTerm": "Fusobacterium necrophorum", "submissionValue": "FUSOBACTERIUM NECROPHORUM"}, {"conceptId": "C86404", "definition": "Any bacterial organism that can be assigned to the species Fusobacterium nucleatum.", "preferredTerm": "Fusobacterium nucleatum", "submissionValue": "FUSOBACTERIUM NUCLEATUM"}, {"conceptId": "C122312", "definition": "Any bacterial organism that can be assigned to the species Fusobacterium periodonticum.", "preferredTerm": "Fusobacterium periodonticum", "submissionValue": "FUSOBACTERIUM PERIODONTICUM"}, {"conceptId": "C86405", "definition": "Any bacterial organism that can be assigned to the species Fusobacterium russii.", "preferredTerm": "Fusobacterium russii", "submissionValue": "FUSOBACTERIUM RUSSII"}, {"conceptId": "C86406", "definition": "Any bacterial organism that can be assigned to the species Fusobacterium ulcerans.", "preferredTerm": "Fusobacterium ulcerans", "submissionValue": "FUSOBACTERIUM ULCERANS"}, {"conceptId": "C86407", "definition": "Any bacterial organism that can be assigned to the species Fusobacterium varium.", "preferredTerm": "Fusobacterium varium", "submissionValue": "FUSOBACTERIUM VARIUM", "synonyms": ["Fusobacterium necrophorum Biovar C", "Fusobacterium pseudonecrophorum"]}, {"conceptId": "C76323", "definition": "Any bacteria that is not assigned to the species level but can be assigned to the Fusobacterium genus level.", "preferredTerm": "Fusobacterium", "submissionValue": "FUSOBACTERIUM"}, {"conceptId": "C122313", "definition": "Any viral organism that is not assigned to the species level but can be assigned to the Gammacoronavirus genus level.", "preferredTerm": "Gammacoronavirus", "submissionValue": "GAMMACORONAVIRUS", "synonyms": ["Coronavirus group 3"]}, {"conceptId": "C86410", "definition": "Any bacterial organism that can be assigned to the species Gardnerella vaginalis.", "preferredTerm": "Gardnerella vaginalis", "submissionValue": "GARDNERELLA VAGINALIS", "synonyms": ["Corynebacterium vaginalis"]}, {"conceptId": "C86409", "definition": "Any bacteria that is not assigned to the species level but can be assigned to the Gardnerella genus level.", "preferredTerm": "Gardnerella", "submissionValue": "GARDNERELLA"}, {"conceptId": "C86890", "definition": "Any bacterial organism that can be assigned to the species Gemella bergeri.", "preferredTerm": "Gemella bergeri", "submissionValue": "GEMELLA BERGERI"}, {"conceptId": "C86891", "definition": "Any bacterial organism that can be assigned to the species Gemella haemolysans.", "preferredTerm": "Gemella haemolysans", "submissionValue": "GEMELLA HAEMOLYSANS", "synonyms": ["Neisseria haemolysans"]}, {"conceptId": "C86892", "definition": "Any bacterial organism that can be assigned to the species Gemella morbillorum.", "preferredTerm": "Gemella morbillorum", "submissionValue": "GEMELLA MORBILLORUM", "synonyms": ["Streptococcus morbillorum"]}, {"conceptId": "C86893", "definition": "Any bacterial organism that can be assigned to the species Gemella sanguinis.", "preferredTerm": "Gemella sanguinis", "submissionValue": "GEMELLA SANGUINIS"}, {"conceptId": "C86889", "definition": "Any bacteria that is not assigned to the species level but can be assigned to the Gemella genus level.", "preferredTerm": "Gemella", "submissionValue": "GEMELLA"}, {"conceptId": "C122314", "definition": "Any fungal organism that is not assigned to the species level but can be assigned to the Geomyces genus level.", "preferredTerm": "Geomyces", "submissionValue": "GEOMYCES"}, {"conceptId": "C127713", "definition": "Any fungal organism that can be assigned to the species Geotrichum klebahnii.", "preferredTerm": "Geotrichum klebahnii", "submissionValue": "GEOTRICHUM KLEBAHNII", "synonyms": ["Geotrichum penicillatum", "Trichosporon penicillatum"]}, {"conceptId": "C122315", "definition": "Any fungal organism that is not assigned to the species level but can be assigned to the Geotrichum genus level.", "preferredTerm": "Geotrichum", "submissionValue": "GEOTRICHUM"}, {"conceptId": "C122316", "definition": "Any unicellular, eukaryotic organism that can be assigned to the species Giardia lamblia.", "preferredTerm": "Giardia lamblia", "submissionValue": "GIARDIA LAMBLIA", "synonyms": ["Giardia duodenalis", "Giardia intestinalis", "Lamblia intestinalis"]}, {"conceptId": "C77213", "definition": "Any unicellular, eukaryotic organism that is not assigned to the species level but can be assigned to the Giardia genus level.", "preferredTerm": "Giardia", "submissionValue": "GIARDIA"}, {"conceptId": "C122317", "definition": "Any fungal organism that is not assigned to the species level but can be assigned to the Gliocladium genus level.", "preferredTerm": "Gliocladium", "submissionValue": "GLIOCLADIUM"}, {"conceptId": "C86412", "definition": "Any bacterial organism that can be assigned to the species Globicatella sanguinis.", "preferredTerm": "Globicatella sanguinis", "submissionValue": "GLOBICATELLA SANGUINIS", "synonyms": ["Globicatella sanguis"]}, {"conceptId": "C86413", "definition": "Any bacterial organism that can be assigned to the species Globicatella sulfidifaciens.", "preferredTerm": "Globicatella sulfidifaciens", "submissionValue": "GLOBICATELLA SULFIDIFACIENS"}, {"conceptId": "C86411", "definition": "Any bacteria that is not assigned to the species level but can be assigned to the Globicatella genus level.", "preferredTerm": "Globicatella", "submissionValue": "GLOBICATELLA"}, {"conceptId": "C122318", "definition": "Any nematode parasite that can be assigned to the species Gnathostoma spinigerum.", "preferredTerm": "Gnathostoma spinigerum", "submissionValue": "GNATHOSTOMA SPINIGERUM"}, {"conceptId": "C122023", "definition": "Any nematode parasite that is not assigned to the species level but can be assigned to the Gnathostoma genus level.", "preferredTerm": "Gnathostoma", "submissionValue": "GNATHOSTOMA"}, {"conceptId": "C86415", "definition": "Any bacterial organism that can be assigned to the species Gordonia aichiensis.", "preferredTerm": "Gordonia aichiensis", "submissionValue": "GORDONIA AICHIENSIS", "synonyms": ["Gordona aichiensis", "Tsukamurella aichiensis"]}, {"conceptId": "C86416", "definition": "Any bacterial organism that can be assigned to the species Gordonia bronchialis.", "preferredTerm": "Gordonia bronchialis", "submissionValue": "GORDONIA BRONCHIALIS", "synonyms": ["Gordona bronchialis", "Rhodococcus bronchialis"]}, {"conceptId": "C86417", "definition": "Any bacterial organism that can be assigned to the species Gordonia rubripertincta.", "preferredTerm": "Gordonia rubripertincta", "submissionValue": "GORDONIA RUBRIPERTINCTA", "synonyms": ["Gordona rubropertincta", "Rhodococcus rubripertincta"]}, {"conceptId": "C86418", "definition": "Any bacterial organism that can be assigned to the species Gordonia sputi.", "preferredTerm": "Gordonia sputi", "submissionValue": "GORDONIA SPUTI", "synonyms": ["Gordona sputi"]}, {"conceptId": "C86419", "definition": "Any bacterial organism that can be assigned to the species Gordonia terrae.", "preferredTerm": "Gordonia terrae", "submissionValue": "GORDONIA TERRAE", "synonyms": ["Gordona terrae", "Rhodococcus terrae"]}, {"conceptId": "C86414", "definition": "Any bacteria that is not assigned to the species level but can be assigned to the Gordonia genus level.", "preferredTerm": "Gordonia", "submissionValue": "GORDONIA"}, {"conceptId": "C86420", "definition": "Any bacteria that is not assigned to the species level but can be assigned to the Gracilibacillus genus level.", "preferredTerm": "Gracilibacillus", "submissionValue": "GRACILIBACILLUS"}, {"conceptId": "C86421", "definition": "Any rod-shaped bacteria that contains low levels of peptidoglycan in its cell wall and stains pink with the Gram staining technique.", "preferredTerm": "Gram Negative Bacillus", "submissionValue": "GRAM-NEGATIVE BACILLUS", "synonyms": ["Gram Negative Rods"]}, {"conceptId": "C122319", "definition": "Any bacteria intermediate in morphology between a spherical-shaped coccus and a rod-shaped bacillus that contains low levels of peptidoglycan in its cell wall and stains pink with the Gram staining technique.", "preferredTerm": "Gram-Negative Coccobacillus", "submissionValue": "GRAM-NEGATIVE COCCOBACILLUS"}, {"conceptId": "C86422", "definition": "Any spherical-shaped bacteria that contains low levels of peptidoglycan in its cell wall and stains pink with the Gram staining technique.", "preferredTerm": "Gram Negative Coccus", "submissionValue": "GRAM-NEGATIVE COCCUS"}, {"conceptId": "C122320", "definition": "Any spherical-shaped bacteria in the form of two joined cells that contains low levels of peptidoglycan in its cell wall and stains pink with the Gram staining technique.", "preferredTerm": "Gram-Negative Diplococcus", "submissionValue": "GRAM-NEGATIVE DIPLOCOCCUS"}, {"conceptId": "C122321", "definition": "Any rod-shaped bacteria whose growth requires lower than atmospheric oxygen level and has a cell wall that contains low levels of peptidoglycan and stains pink with the Gram staining technique.", "preferredTerm": "Gram-Negative Microaerophilic Bacillus", "submissionValue": "GRAM-NEGATIVE MICROAEROPHILIC BACILLUS"}, {"conceptId": "C122322", "definition": "Any spherical-shaped bacteria whose growth requires lower than atmospheric oxygen level and has a cell wall that contains low levels of peptidoglycan and stains pink with the Gram staining technique.", "preferredTerm": "Gram-Negative Microaerophilic Coccus", "submissionValue": "GRAM-NEGATIVE MICROAEROPHILIC COCCUS"}, {"conceptId": "C123469", "definition": "Any rod-shaped bacteria with the ability to alter its shape or size in response to stimuli and has a cell wall that contains low levels of peptidoglycan and stains pink with the Gram staining technique.", "preferredTerm": "Gram-Negative Pleomorphic Bacillus", "submissionValue": "GRAM-NEGATIVE PLEOMORPHIC BACILLUS"}, {"conceptId": "C62589", "definition": "Any rod-shaped bacteria that has a peptidoglycan-rich cell wall that stains dark purple with the Gram staining technique.", "preferredTerm": "Gram Positive Bacillus", "submissionValue": "GRAM-POSITIVE BACILLUS"}, {"conceptId": "C86424", "definition": "Any spherical-shaped bacteria that has a peptidoglycan-rich cell wall that stains dark purple with the Gram staining technique.", "preferredTerm": "Gram Positive Coccus", "submissionValue": "GRAM-POSITIVE COCCUS"}, {"conceptId": "C123470", "definition": "Any spherical-shaped bacteria in the form of two joined cells and has a peptidoglycan-rich cell wall that stains dark purple with the Gram staining technique.", "preferredTerm": "Gram-Positive Diplococcus", "submissionValue": "GRAM-POSITIVE DIPLOCOCCUS"}, {"conceptId": "C123471", "definition": "Any rod-shaped bacteria whose growth requires lower than atmospheric oxygen level and has a peptidoglycan-rich cell wall that stains dark purple with the Gram staining technique.", "preferredTerm": "Gram-Positive Microaerophilic Bacillus", "submissionValue": "GRAM-POSITIVE MICROAEROPHILIC BACILLUS"}, {"conceptId": "C123472", "definition": "Any spherical-shaped bacteria whose growth requires lower than atmospheric oxygen level and has a peptidoglycan-rich cell wall that stains dark purple with the Gram staining technique.", "preferredTerm": "Gram-Positive Microaerophilic Coccus", "submissionValue": "GRAM-POSITIVE MICROAEROPHILIC COCCUS"}, {"conceptId": "C86426", "definition": "Any bacterial organism that can be assigned to the species Granulicatella adiacens.", "preferredTerm": "Granulicatella adiacens", "submissionValue": "GRANULICATELLA ADIACENS", "synonyms": ["Abiotrophia adjacens", "Streptococcus adjacens"]}, {"conceptId": "C111204", "definition": "Any bacterial organism that can be assigned to the species Granulicatella elegans.", "preferredTerm": "Granulicatella elegans", "submissionValue": "GRANULICATELLA ELEGANS", "synonyms": ["Abiotrophia elegans"]}, {"conceptId": "C86425", "definition": "Any bacteria that is not assigned to the species level but can be assigned to the Granulicatella genus level.", "preferredTerm": "Granulicatella", "submissionValue": "GRANULICATELLA"}, {"conceptId": "C86427", "definition": "Any bacterial organism that can be assigned to the species Grimontia hollisae.", "preferredTerm": "Grimontia hollisae", "submissionValue": "GRIMONTIA HOLLISAE", "synonyms": ["Vibrio hollisae"]}, {"conceptId": "C127714", "definition": "Any fungal organism that can be assigned to the species Guehomyces pullulans.", "preferredTerm": "Guehomyces pullulans", "submissionValue": "GUEHOMYCES PULLULANS", "synonyms": ["Basidiotrichosporon pullulans", "Monilia pullulans", "Oidium pullulans", "Oospora pullulans", "Trichosporon pullulans"]}, {"conceptId": "C86428", "definition": "Any bacterial organism that can be assigned to the species Haemophilus aegyptius.", "preferredTerm": "Haemophilus aegyptius", "submissionValue": "HAEMOPHILUS AEGYPTIUS"}, {"conceptId": "C86429", "definition": "Any bacterial organism that can be assigned to the species Haemophilus haemoglobinophilus.", "preferredTerm": "Haemophilus haemoglobinophilus", "submissionValue": "HAEMOPHILUS HAEMOGLOBINOPHILUS"}, {"conceptId": "C86430", "definition": "Any bacterial organism that can be assigned to the species Haemophilus haemolyticus.", "preferredTerm": "Haemophilus haemolyticus", "submissionValue": "HAEMOPHILUS HAEMOLYTICUS"}, {"conceptId": "C123473", "definition": "Any bacterial organism that can be assigned to the species Haemophilus haemolyticus and is beta-lactamase negative.", "preferredTerm": "Haemophilus haemolyticus, Beta-Lactamase Negative", "submissionValue": "HAEMOPHILUS HAEMOLYTICUS, BETA-LACTAMASE NEGATIVE"}, {"conceptId": "C123474", "definition": "Any bacterial organism that can be assigned to the species Haemophilus haemolyticus and is beta-lactamase positive.", "preferredTerm": "Haemophilus haemolyticus, Beta-Lactamase Positive", "submissionValue": "HAEMOPHILUS HAEMOLYTICUS, BETA-LACTAMASE POSITIVE"}, {"conceptId": "C123475", "definition": "Any bacterial organism that can be assigned to the species Haemophilus haemolyticus and is penicillinase negative.", "preferredTerm": "Haemophilus haemolyticus, Penicillinase Negative", "submissionValue": "HAEMOPHILUS HAEMOLYTICUS, PENICILLINASE NEGATIVE"}, {"conceptId": "C123476", "definition": "Any bacterial organism that can be assigned to the species Haemophilus haemolyticus and is penicillinase positive.", "preferredTerm": "Haemophilus haemolyticus, Penicillinase Positive", "submissionValue": "HAEMOPHILUS HAEMOLYTICUS, PENICILLINASE POSITIVE"}, {"conceptId": "C86431", "definition": "Any bacterial organism that can be assigned to the species Haemophilus influenzae.", "preferredTerm": "Haemophilus influenzae", "submissionValue": "HAEMOPHILUS INFLUENZAE", "synonyms": ["H-flu"]}, {"conceptId": "C123477", "definition": "Any bacterial organism that can be assigned to the species Haemophilus influenzae and is beta-lactamase negative.", "preferredTerm": "Haemophilus influenzae, Beta-Lactamase Negative", "submissionValue": "HAEMOPHILUS INFLUENZAE, BETA-LACTAMASE NEGATIVE"}, {"conceptId": "C123478", "definition": "Any bacterial organism that can be assigned to the species Haemophilus influenzae and is beta-lactamase positive.", "preferredTerm": "Haemophilus influenzae, Beta-Lactamase Positive", "submissionValue": "HAEMOPHILUS INFLUENZAE, BETA-LACTAMASE POSITIVE"}, {"conceptId": "C123479", "definition": "Any bacterial organism that can be assigned to the species Haemophilus influenzae and is penicillinase negative.", "preferredTerm": "Haemophilus influenzae, Penicillinase Negative", "submissionValue": "HAEMOPHILUS INFLUENZAE, PENICILLINASE NEGATIVE"}, {"conceptId": "C123480", "definition": "Any bacterial organism that can be assigned to the species Haemophilus influenzae and is penicillinase positive.", "preferredTerm": "Haemophilus influenzae, Penicillinase Positive", "submissionValue": "HAEMOPHILUS INFLUENZAE, PENICILLINASE POSITIVE"}, {"conceptId": "C86432", "definition": "Any bacterial organism that can be assigned to the species Haemophilus parahaemolyticus.", "preferredTerm": "Haemophilus parahaemolyticus", "submissionValue": "HAEMOPHILUS PARAHAEMOLYTICUS"}, {"conceptId": "C123481", "definition": "Any bacterial organism that can be assigned to the species Haemophilus parahaemolyticus and is beta-lactamase negative.", "preferredTerm": "Haemophilus parahaemolyticus, Beta-Lactamase Negative", "submissionValue": "HAEMOPHILUS PARAHAEMOLYTICUS, BETA-LACTAMASE NEGATIVE"}, {"conceptId": "C123482", "definition": "Any bacterial organism that can be assigned to the species Haemophilus parahaemolyticus and is beta-lactamase positive.", "preferredTerm": "Haemophilus parahaemolyticus, Beta-Lactamase Positive", "submissionValue": "HAEMOPHILUS PARAHAEMOLYTICUS, BETA-LACTAMASE POSITIVE"}, {"conceptId": "C123483", "definition": "Any bacterial organism that can be assigned to the species Haemophilus parahaemolyticus and is penicillinase negative.", "preferredTerm": "Haemophilus parahaemolyticus, Penicillinase Negative", "submissionValue": "HAEMOPHILUS PARAHAEMOLYTICUS, PENICILLINASE NEGATIVE"}, {"conceptId": "C123484", "definition": "Any bacterial organism that can be assigned to the species Haemophilus parahaemolyticus and is penicillinase positive.", "preferredTerm": "Haemophilus parahaemolyticus, Penicillinase Positive", "submissionValue": "HAEMOPHILUS PARAHAEMOLYTICUS, PENICILLINASE POSITIVE"}, {"conceptId": "C86433", "definition": "Any bacterial organism that can be assigned to the species Haemophilus parainfluenzae.", "preferredTerm": "Haemophilus parainfluenzae", "submissionValue": "HAEMOPHILUS PARAINFLUENZAE", "synonyms": ["Hemophilus parainfluenzae"]}, {"conceptId": "C123485", "definition": "Any bacterial organism that can be assigned to the species Haemophilus parainfluenzae and is beta-lactamase negative.", "preferredTerm": "Haemophilus parainfluenzae, Beta-Lactamase Negative", "submissionValue": "HAEMOPHILUS PARAINFLUENZAE, BETA-LACTAMASE NEGATIVE"}, {"conceptId": "C123486", "definition": "Any bacterial organism that can be assigned to the species Haemophilus parainfluenzae and is beta-lactamase positive.", "preferredTerm": "Haemophilus parainfluenzae, Beta-Lactamase Positive", "submissionValue": "HAEMOPHILUS PARAINFLUENZAE, BETA-LACTAMASE POSITIVE"}, {"conceptId": "C123487", "definition": "Any bacterial organism that can be assigned to the species Haemophilus parainfluenzae and is penicillinase negative.", "preferredTerm": "Haemophilus parainfluenzae, Penicillinase Negative", "submissionValue": "HAEMOPHILUS PARAINFLUENZAE, PENICILLINASE NEGATIVE"}, {"conceptId": "C123488", "definition": "Any bacterial organism that can be assigned to the species Haemophilus parainfluenzae and is penicillinase positive.", "preferredTerm": "Haemophilus parainfluenzae, Penicillinase Positive", "submissionValue": "HAEMOPHILUS PARAINFLUENZAE, PENICILLINASE POSITIVE"}, {"conceptId": "C127715", "definition": "Any bacterial organism that can be assigned to the species Haemophilus paraphrohaemolyticus.", "preferredTerm": "Haemophilus paraphrohaemolyticus", "submissionValue": "HAEMOPHILUS PARAPHROHAEMOLYTICUS"}, {"conceptId": "C76324", "definition": "Any bacteria that is not assigned to the species level but can be assigned to the Haemophilus genus level.", "preferredTerm": "Haemophilus", "submissionValue": "HAEMOPHILUS"}, {"conceptId": "C86435", "definition": "Any bacterial organism that can be assigned to the species Hafnia alvei.", "preferredTerm": "Hafnia alvei", "submissionValue": "HAFNIA ALVEI", "synonyms": ["Enterobacter alvei"]}, {"conceptId": "C86434", "definition": "Any bacteria that is not assigned to the species level but can be assigned to the Hafnia genus level.", "preferredTerm": "Hafnia", "submissionValue": "HAFNIA"}, {"conceptId": "C86436", "definition": "Any bacteria that is not assigned to the species level but can be assigned to the Halobacillus genus level.", "preferredTerm": "Halobacillus", "submissionValue": "HALOBACILLUS"}, {"conceptId": "C127716", "definition": "Any fungal organism that can be assigned to the species Hannaella luteola.", "preferredTerm": "Hannaella luteola", "submissionValue": "HANNAELLA LUTEOLA", "synonyms": ["Chromotorula luteola", "Cryptococcus luteolus", "Hannaella luteolus", "Rhodotorula luteola", "Torula luteola", "Torulopsis luteola"]}, {"conceptId": "C127717", "definition": "Any fungal organism that can be assigned to the species Hanseniaspora guilliermondii.", "preferredTerm": "Hanseniaspora guilliermondii", "submissionValue": "HANSENIASPORA GUILLIERMONDII"}, {"conceptId": "C127718", "definition": "Any fungal organism that can be assigned to the species Hanseniaspora uvarum.", "preferredTerm": "Hanseniaspora uvarum", "submissionValue": "HANSENIASPORA UVARUM", "synonyms": ["Hanseniaspora apiculata", "Kloeckera apiculata", "Kloeckeraspora uvarum"]}, {"conceptId": "C127719", "definition": "Any fungal organism that can be assigned to the species Hanseniaspora valbyensis.", "preferredTerm": "Hanseniaspora valbyensis", "submissionValue": "HANSENIASPORA VALBYENSIS"}, {"conceptId": "C14213", "definition": "Any viral organism that can be assigned to the genus Hantavirus.", "preferredTerm": "Hantavirus", "submissionValue": "HANTAVIRUS"}, {"conceptId": "C86878", "definition": "Any bacterial organism that can be assigned to the species Helcococcus kunzii.", "preferredTerm": "Helcococcus kunzii", "submissionValue": "HELCOCOCCUS KUNZII"}, {"conceptId": "C86879", "definition": "Any bacterial organism that can be assigned to the species Helcococcus pyogenes.", "preferredTerm": "Helcococcus pyogenes", "submissionValue": "HELCOCOCCUS PYOGENES"}, {"conceptId": "C86880", "definition": "Any bacterial organism that can be assigned to the species Helcococcus sueciensis.", "preferredTerm": "Helcococcus sueciensis", "submissionValue": "HELCOCOCCUS SUECIENSIS"}, {"conceptId": "C86873", "definition": "Any bacteria that is not assigned to the species level but can be assigned to the Helcococcus genus level.", "preferredTerm": "Helcococcus", "submissionValue": "HELCOCOCCUS"}, {"conceptId": "C86437", "definition": "Any bacterial organism that can be assigned to the species Helicobacter cinaedi.", "preferredTerm": "Helicobacter cinaedi", "submissionValue": "HELICOBACTER CINAEDI", "synonyms": ["Campylobacter cinaedi"]}, {"conceptId": "C14330", "definition": "Any bacterial organism that can be assigned to the species Helicobacter felis.", "preferredTerm": "Helicobacter felis", "submissionValue": "HELICOBACTER FELIS"}, {"conceptId": "C86438", "definition": "Any bacterial organism that can be assigned to the species Helicobacter fennelliae.", "preferredTerm": "Helicobacter fennelliae", "submissionValue": "HELICOBACTER FENNELLIAE", "synonyms": ["Campylobacter fennelliae"]}, {"conceptId": "C86439", "definition": "Any bacterial organism that can be assigned to the species Helicobacter mustelae.", "preferredTerm": "Helicobacter mustelae", "submissionValue": "HELICOBACTER MUSTELAE", "synonyms": ["Campylobacter mustelae"]}, {"conceptId": "C14289", "definition": "Any bacterial organism that can be assigned to the species Helicobacter pylori.", "preferredTerm": "Helicobacter pylori", "submissionValue": "HELICOBACTER PYLORI", "synonyms": ["Campylobacter pylori", "H. pylori"]}, {"conceptId": "C86440", "definition": "Any bacterial organism that can be assigned to the species Helicobacter rappini.", "preferredTerm": "Helicobacter rappini", "submissionValue": "HELICOBACTER RAPPINI", "synonyms": ["Flexispira rappini"]}, {"conceptId": "C14296", "definition": "Any bacteria that is not assigned to the species level but can be assigned to the Helicobacter genus level.", "preferredTerm": "Helicobacter", "submissionValue": "HELICOBACTER"}, {"conceptId": "C112289", "definition": "Any viral organism that can be assigned to the species Hendra virus.", "preferredTerm": "Hendra Virus", "submissionValue": "HENDRA VIRUS"}, {"conceptId": "C112290", "definition": "Any viral organism that can be assigned to the genus Henipavirus.", "preferredTerm": "Henipavirus", "submissionValue": "HENIPAVIRUS"}, {"conceptId": "C14325", "definition": "Any viral organism that can be assigned to the species Hepatitis A virus.", "preferredTerm": "Hepatitis A Virus", "submissionValue": "HEPATITIS A VIRUS", "synonyms": ["HAV"]}, {"conceptId": "C14215", "definition": "Any viral organism that can be assigned to the species Hepatitis B virus.", "preferredTerm": "Hepatitis B Virus", "submissionValue": "HEPATITIS B VIRUS", "synonyms": ["HBV"]}, {"conceptId": "C14312", "definition": "Any viral organism that can be assigned to the species Hepatitis C virus.", "preferredTerm": "Hepatitis C Virus", "submissionValue": "HEPATITIS C VIRUS", "synonyms": ["HCV"]}, {"conceptId": "C93324", "definition": "Any viral organism that can be assigned to the species Hepatitis D virus.", "preferredTerm": "Hepatitis D Virus", "submissionValue": "HEPATITIS D VIRUS", "synonyms": ["HDV"]}, {"conceptId": "C14295", "definition": "Any viral organism that can be assigned to the species Hepatitis E virus.", "preferredTerm": "Hepatitis E Virus", "submissionValue": "HEPATITIS E VIRUS", "synonyms": ["HEV"]}, {"conceptId": "C14328", "definition": "Any viral organism that can be assigned to the species Hepatitis G virus.", "preferredTerm": "GB virus C", "submissionValue": "HEPATITIS G VIRUS", "synonyms": ["GBV-C", "HGV"]}, {"conceptId": "C127720", "definition": "Any bacterial organism that can be assigned to the species Herbaspirillum huttiense.", "preferredTerm": "Herbaspirillum huttiense", "submissionValue": "HERBASPIRILLUM HUTTIENSE", "synonyms": ["Pseudomonas huttiensis"]}, {"conceptId": "C14311", "definition": "Any viral organism that can be assigned to the species herpes simplex virus 1.", "preferredTerm": "Human Herpesvirus 1", "submissionValue": "HERPES SIMPLEX VIRUS 1", "synonyms": ["Herpes Simplex Virus Type 1", "HHV-1", "HSV-1", "Human Alphaherpesvirus 1", "Human Herpesvirus 1"]}, {"conceptId": "C112313", "definition": "Any viral organism that can be assigned to the species herpes simplex virus 2.", "preferredTerm": "Human Herpesvirus 2", "submissionValue": "HERPES SIMPLEX VIRUS 2", "synonyms": ["Herpes Simplex Virus Type 2", "HHV-2", "HSV-2", "Human Alphaherpesvirus 2", "Human Herpesvirus 2"]}, {"conceptId": "C123489", "definition": "Any trematode parasite that can be assigned to the species Heterophyes heterophyes.", "preferredTerm": "Heterophyes heterophyes", "submissionValue": "HETEROPHYES HETEROPHYES"}, {"conceptId": "C86441", "definition": "Any bacterial organism that can be assigned to the species Histophilus somni.", "preferredTerm": "Histophilus somni", "submissionValue": "HISTOPHILUS SOMNI", "synonyms": ["Haemophilus somnus"]}, {"conceptId": "C187912", "definition": "A non-taxonomic grouping of HIV-1 strains that are assigned to the O group.", "preferredTerm": "HIV-1 Group O", "submissionValue": "HIV-1 GROUP O"}, {"conceptId": "C86443", "definition": "Any bacterial organism that can be assigned to the species Holdemania filiformis.", "preferredTerm": "Holdemania filiformis", "submissionValue": "HOLDEMANIA FILIFORMIS"}, {"conceptId": "C86442", "definition": "Any bacteria that is not assigned to the species level but can be assigned to the Holdemania genus level.", "preferredTerm": "Holdemania", "submissionValue": "HOLDEMANIA"}, {"conceptId": "C127721", "definition": "Any fungal organism that can be assigned to the species Hortaea werneckii.", "preferredTerm": "Hortaea werneckii", "submissionValue": "HORTAEA WERNECKII"}, {"conceptId": "C184695", "definition": "Any viral organism that can be assigned to the species Human bocavirus.", "preferredTerm": "Human Bocavirus", "submissionValue": "HUMAN BOCAVIRUS"}, {"conceptId": "C178019", "definition": "Any viral organism that can be assigned to the species Human coronavirus 229E.", "preferredTerm": "Human Coronavirus 229E", "submissionValue": "HUMAN CORONAVIRUS 229E", "synonyms": ["Coronavirus 229E", "HCoV-229E"]}, {"conceptId": "C178020", "definition": "Any viral organism that can be assigned to the species Human coronavirus HKU1.", "preferredTerm": "Human Coronavirus HKU1", "submissionValue": "HUMAN CORONAVIRUS HKU1", "synonyms": ["HCoV-HKU1"]}, {"conceptId": "C178021", "definition": "Any viral organism that can be assigned to the species Human coronavirus NL63.", "preferredTerm": "Human Coronavirus NL63", "submissionValue": "HUMAN CORONAVIRUS NL63", "synonyms": ["Coronavirus NL63", "HCoV-NL63"]}, {"conceptId": "C178022", "definition": "Any viral organism that can be assigned to the species Human coronavirus OC43.", "preferredTerm": "Human Coronavirus OC43", "submissionValue": "HUMAN CORONAVIRUS OC43", "synonyms": ["HCoV-OC43"]}, {"conceptId": "C112314", "definition": "Any viral organism that can be assigned to the species human cytomegalovirus.", "preferredTerm": "Human Herpesvirus 5", "submissionValue": "HUMAN CYTOMEGALOVIRUS", "synonyms": ["HCMV", "HHV-5", "Human Betaherpesvirus 5", "Human Herpesvirus 5"]}, {"conceptId": "C14218", "definition": "Any viral organism that can be assigned to the species human herpesvirus 6.", "preferredTerm": "Human Herpesvirus 6", "submissionValue": "HUMAN HERPESVIRUS 6", "synonyms": ["Herpes Simplex Virus 6", "Herpes Virus 6", "HHV-6", "Human Betaherpesvirus 6"]}, {"conceptId": "C112315", "definition": "Any viral organism that can be assigned to the species human herpesvirus 7.", "preferredTerm": "Human Herpesvirus 7", "submissionValue": "HUMAN HERPESVIRUS 7", "synonyms": ["Herpes Simplex Virus 7", "Herpes Virus 7", "HHV-7", "Human Betaherpesvirus 7"]}, {"conceptId": "C14327", "definition": "Any viral organism that can be assigned to the species human herpesvirus 8.", "preferredTerm": "Human Herpesvirus 8", "submissionValue": "HUMAN HERPESVIRUS 8", "synonyms": ["Herpes Virus 8", "HHV-8", "Human Gammaherpesvirus 8", "Kaposi's Sarcoma-associated Herpesvirus", "KSHV"]}, {"conceptId": "C189605", "definition": "Any viral organism that can be assigned to the species Human Immunodeficiency virus 1, group M (major) and subtype/clade A.", "preferredTerm": "Human Immunodeficiency Virus 1 Subtype A", "submissionValue": "HUMAN IMMUNODEFICIENCY VIRUS 1 SUBTYPE A", "synonyms": ["HIV-1 Subtype A"]}, {"conceptId": "C189606", "definition": "Any viral organism that can be assigned to the species Human Immunodeficiency virus 1, group M (major) and subtype/clade B.", "preferredTerm": "Human Immunodeficiency Virus 1 Subtype B", "submissionValue": "HUMAN IMMUNODEFICIENCY VIRUS 1 SUBTYPE B", "synonyms": ["HIV-1 Subtype B"]}, {"conceptId": "C189607", "definition": "Any viral organism that can be assigned to the species Human Immunodeficiency virus 1, group M (major) and subtype/clade C.", "preferredTerm": "Human Immunodeficiency Virus 1 Subtype C", "submissionValue": "HUMAN IMMUNODEFICIENCY VIRUS 1 SUBTYPE C", "synonyms": ["HIV-1 Subtype C"]}, {"conceptId": "C189608", "definition": "Any viral organism that can be assigned to the species Human Immunodeficiency virus 1, group M (major) and subtype/clade D.", "preferredTerm": "Human Immunodeficiency Virus 1 Subtype D", "submissionValue": "HUMAN IMMUNODEFICIENCY VIRUS 1 SUBTYPE D", "synonyms": ["HIV-1 Subtype D"]}, {"conceptId": "C189609", "definition": "Any viral organism that can be assigned to the species Human Immunodeficiency virus 1, group M (major) and subtype/clade F.", "preferredTerm": "Human Immunodeficiency Virus 1 Subtype F", "submissionValue": "HUMAN IMMUNODEFICIENCY VIRUS 1 SUBTYPE F", "synonyms": ["HIV-1 Subtype F"]}, {"conceptId": "C189610", "definition": "Any viral organism that can be assigned to the species Human Immunodeficiency virus 1, group M (major) and subtype/clade G.", "preferredTerm": "Human Immunodeficiency Virus 1 Subtype G", "submissionValue": "HUMAN IMMUNODEFICIENCY VIRUS 1 SUBTYPE G", "synonyms": ["HIV-1 Subtype G"]}, {"conceptId": "C14220", "definition": "Any viral organism that can be assigned to the species Human Immunodeficiency virus 1.", "preferredTerm": "Human Immunodeficiency Virus 1", "submissionValue": "HUMAN IMMUNODEFICIENCY VIRUS 1", "synonyms": ["HIV-1", "LAV-1"]}, {"conceptId": "C14221", "definition": "Any viral organism that can be assigned to the species Human Immunodeficiency virus 2.", "preferredTerm": "Human Immunodeficiency Virus 2", "submissionValue": "HUMAN IMMUNODEFICIENCY VIRUS 2", "synonyms": ["HIV-2", "LAV-2"]}, {"conceptId": "C14219", "definition": "Any viral organism that can be assigned to the species Human Immunodeficiency virus 1 or 2.", "preferredTerm": "Human Immunodeficiency Virus", "submissionValue": "HUMAN IMMUNODEFICIENCY VIRUS", "synonyms": ["HIV"]}, {"conceptId": "C125640", "definition": "An viral species which can be assigned to the species Human metapneumovirus.", "preferredTerm": "Human Metapneumovirus", "submissionValue": "HUMAN METAPNEUMOVIRUS"}, {"conceptId": "C99178", "definition": "Any viral organism that can be assigned to the Human papillomavirus virus type 11 serotype.", "preferredTerm": "Human Papillomavirus-11", "submissionValue": "HUMAN PAPILLOMAVIRUS TYPE 11", "synonyms": ["HPV 11", "Human papillomavirus 11"]}, {"conceptId": "C14338", "definition": "Any viral organism that can be assigned to the Human papillomavirus virus type 16 serotype.", "preferredTerm": "Human Papillomavirus-16", "submissionValue": "HUMAN PAPILLOMAVIRUS TYPE 16", "synonyms": ["HPV 16"]}, {"conceptId": "C14377", "definition": "Any viral organism that can be assigned to the Human papillomavirus virus type 18 serotype.", "preferredTerm": "Human Papillomavirus-18", "submissionValue": "HUMAN PAPILLOMAVIRUS TYPE 18", "synonyms": ["HPV 18"]}, {"conceptId": "C102904", "definition": "Any viral organism that can be assigned to the Human papillomavirus virus type 31 serotype.", "preferredTerm": "Human Papillomavirus-31", "submissionValue": "HUMAN PAPILLOMAVIRUS TYPE 31", "synonyms": ["HPV 31", "Human papillomavirus 31"]}, {"conceptId": "C102996", "definition": "Any viral organism that can be assigned to the Human papillomavirus virus type 33 serotype.", "preferredTerm": "Human Papillomavirus-33", "submissionValue": "HUMAN PAPILLOMAVIRUS TYPE 33", "synonyms": ["HPV 33", "Human papillomavirus 33"]}, {"conceptId": "C186749", "definition": "Any viral organism that can be assigned to the Human papillomavirus virus type 34 serotype.", "preferredTerm": "Human Papillomavirus-34", "submissionValue": "HUMAN PAPILLOMAVIRUS TYPE 34", "synonyms": ["HPV 34"]}, {"conceptId": "C102997", "definition": "Any viral organism that can be assigned to the Human papillomavirus virus type 35 serotype.", "preferredTerm": "Human Papillomavirus-35", "submissionValue": "HUMAN PAPILLOMAVIRUS TYPE 35", "synonyms": ["HPV 35", "Human papillomavirus 35"]}, {"conceptId": "C102998", "definition": "Any viral organism that can be assigned to the Human papillomavirus virus type 39 serotype.", "preferredTerm": "Human Papillomavirus-39", "submissionValue": "HUMAN PAPILLOMAVIRUS TYPE 39", "synonyms": ["HPV 39", "Human papillomavirus 39"]}, {"conceptId": "C186750", "definition": "Any viral organism that can be assigned to the Human papillomavirus virus type 40 serotype.", "preferredTerm": "Human Papillomavirus-40", "submissionValue": "HUMAN PAPILLOMAVIRUS TYPE 40", "synonyms": ["HPV 40", "Human papillomavirus 40"]}, {"conceptId": "C186751", "definition": "Any viral organism that can be assigned to the Human papillomavirus virus type 42 serotype.", "preferredTerm": "Human Papillomavirus-42", "submissionValue": "HUMAN PAPILLOMAVIRUS TYPE 42", "synonyms": ["HPV 42", "Human papillomavirus 42"]}, {"conceptId": "C186752", "definition": "Any viral organism that can be assigned to the Human papillomavirus virus type 43 serotype.", "preferredTerm": "Human Papillomavirus-43", "submissionValue": "HUMAN PAPILLOMAVIRUS TYPE 43", "synonyms": ["HPV 43", "Human papillomavirus 43"]}, {"conceptId": "C186753", "definition": "Any viral organism that can be assigned to the Human papillomavirus virus type 44 serotype.", "preferredTerm": "Human Papillomavirus-44", "submissionValue": "HUMAN PAPILLOMAVIRUS TYPE 44", "synonyms": ["HPV 44", "Human papillomavirus 44"]}, {"conceptId": "C102999", "definition": "Any viral organism that can be assigned to the Human papillomavirus virus type 45 serotype.", "preferredTerm": "Human Papillomavirus-45", "submissionValue": "HUMAN PAPILLOMAVIRUS TYPE 45", "synonyms": ["HPV 45", "Human papillomavirus 45"]}, {"conceptId": "C103000", "definition": "Any viral organism that can be assigned to the Human papillomavirus virus type 51 serotype.", "preferredTerm": "Human Papillomavirus-51", "submissionValue": "HUMAN PAPILLOMAVIRUS TYPE 51", "synonyms": ["HPV 51", "Human papillomavirus 51"]}, {"conceptId": "C103001", "definition": "Any viral organism that can be assigned to the Human papillomavirus virus type 52 serotype.", "preferredTerm": "Human Papillomavirus-52", "submissionValue": "HUMAN PAPILLOMAVIRUS TYPE 52", "synonyms": ["HPV 52", "Human papillomavirus 52"]}, {"conceptId": "C103002", "definition": "Any viral organism that can be assigned to the Human papillomavirus virus type 53 serotype.", "preferredTerm": "Human Papillomavirus-53", "submissionValue": "HUMAN PAPILLOMAVIRUS TYPE 53", "synonyms": ["HPV 53"]}, {"conceptId": "C186754", "definition": "Any viral organism that can be assigned to the Human papillomavirus virus type 54 serotype.", "preferredTerm": "Human Papillomavirus-54", "submissionValue": "HUMAN PAPILLOMAVIRUS TYPE 54", "synonyms": ["HPV 54", "Human papillomavirus 54"]}, {"conceptId": "C103003", "definition": "Any viral organism that can be assigned to the Human papillomavirus virus type 56 serotype.", "preferredTerm": "Human Papillomavirus-56", "submissionValue": "HUMAN PAPILLOMAVIRUS TYPE 56", "synonyms": ["HPV 56", "Human papillomavirus 56"]}, {"conceptId": "C103004", "definition": "Any viral organism that can be assigned to the Human papillomavirus virus type 58 serotype.", "preferredTerm": "Human Papillomavirus-58", "submissionValue": "HUMAN PAPILLOMAVIRUS TYPE 58", "synonyms": ["HPV 58", "Human papillomavirus 58"]}, {"conceptId": "C103005", "definition": "Any viral organism that can be assigned to the Human papillomavirus virus type 59 serotype.", "preferredTerm": "Human Papillomavirus-59", "submissionValue": "HUMAN PAPILLOMAVIRUS TYPE 59", "synonyms": ["HPV 59", "Human papillomavirus 59"]}, {"conceptId": "C14319", "definition": "Any viral organism that can be assigned to the Human papillomavirus virus type 6 serotype.", "preferredTerm": "Human Papillomavirus-6", "submissionValue": "HUMAN PAPILLOMAVIRUS TYPE 6", "synonyms": ["HPV 6"]}, {"conceptId": "C103006", "definition": "Any viral organism that can be assigned to the Human papillomavirus virus type 66 serotype.", "preferredTerm": "Human Papillomavirus-66", "submissionValue": "HUMAN PAPILLOMAVIRUS TYPE 66", "synonyms": ["HPV 66", "Human papillomavirus 66"]}, {"conceptId": "C103007", "definition": "Any viral organism that can be assigned to the Human papillomavirus virus type 68 serotype.", "preferredTerm": "Human Papillomavirus-68", "submissionValue": "HUMAN PAPILLOMAVIRUS TYPE 68", "synonyms": ["HPV 68", "Human papillomavirus 68"]}, {"conceptId": "C186755", "definition": "Any viral organism that can be assigned to the Human papillomavirus virus type 69 serotype.", "preferredTerm": "Human Papillomavirus-69", "submissionValue": "HUMAN PAPILLOMAVIRUS TYPE 69", "synonyms": ["HPV 69", "Human papillomavirus 69"]}, {"conceptId": "C156055", "definition": "Any viral organism that can be assigned to the Human papillomavirus virus type 70 serotype.", "preferredTerm": "Human Papillomavirus-70", "submissionValue": "HUMAN PAPILLOMAVIRUS TYPE 70", "synonyms": ["HPV 70"]}, {"conceptId": "C186780", "definition": "Any viral organism that can be assigned to the Human papillomavirus virus type 74 serotype.", "preferredTerm": "Human Papillomavirus-74", "submissionValue": "HUMAN PAPILLOMAVIRUS TYPE 74", "synonyms": ["HPV 74", "Human papillomavirus 74"]}, {"conceptId": "C14226", "definition": "Any viral organism in humans that can be assigned to the family Papillomaviridae.", "preferredTerm": "Human Papillomavirus", "submissionValue": "HUMAN PAPILLOMAVIRUS", "synonyms": ["HPV", "Human Papilloma Virus"]}, {"conceptId": "C14254", "definition": "Any viral organism that can be assigned to the species Human Parainfluenza virus 1.", "preferredTerm": "Human Parainfluenza Virus 1", "submissionValue": "HUMAN PARAINFLUENZA VIRUS 1", "synonyms": ["HPIV-1", "Human Parainfluenza Virus Type 1", "Human Respirovirus 1"]}, {"conceptId": "C112316", "definition": "Any viral organism that can be assigned to the species Human Parainfluenza virus 2.", "preferredTerm": "Human Parainfluenza Virus 2", "submissionValue": "HUMAN PARAINFLUENZA VIRUS 2", "synonyms": ["HPIV-2", "Human orthorubulavirus 2", "Human Parainfluenza Virus Type 2", "Human Rubulavirus 2"]}, {"conceptId": "C112317", "definition": "Any viral organism that can be assigned to the species Human Parainfluenza virus 3.", "preferredTerm": "Human Parainfluenza Virus 3", "submissionValue": "HUMAN PARAINFLUENZA VIRUS 3", "synonyms": ["HPIV-3", "Human Parainfluenza Virus Type 3", "Human Respirovirus 3"]}, {"conceptId": "C112318", "definition": "Any viral organism that can be assigned to the species Human Parainfluenza virus 4.", "preferredTerm": "Human Parainfluenza Virus 4", "submissionValue": "HUMAN PARAINFLUENZA VIRUS 4", "synonyms": ["HPIV Type 4", "HPIV-4", "Human orthorubulavirus 4", "Human Parainfluenza Virus Type 4", "Human Rubulavirus 4"]}, {"conceptId": "C125641", "definition": "Any viral organism that can be assigned to the species Human Parainfluenza virus 1, 2, 3 and/or 4.", "preferredTerm": "Human Parainfluenza Virus", "submissionValue": "HUMAN PARAINFLUENZA VIRUS"}, {"conceptId": "C89772", "definition": "Any viral organism that can be assigned to the species Human Parvovirus B19.", "preferredTerm": "Parvovirus B19", "submissionValue": "HUMAN PARVOVIRUS B19", "synonyms": ["B19 Virus", "Human Erythrovirus B19", "Parvovirus B19"]}, {"conceptId": "C181465", "definition": "Any viral organism that can be assigned to the Human poliovirus serotype 1.", "preferredTerm": "Human Poliovirus Type 1", "submissionValue": "HUMAN POLIOVIRUS 1", "synonyms": ["Human poliovirus type 1", "NC Type 1"]}, {"conceptId": "C181466", "definition": "Any viral organism that can be assigned to the Human poliovirus serotype 3.", "preferredTerm": "Human Poliovirus Type 3", "submissionValue": "HUMAN POLIOVIRUS 3", "synonyms": ["ENC Type 3", "Human poliovirus type 3"]}, {"conceptId": "C14267", "definition": "Any viral organism that can be assigned to the species Human Respiratory Syncitial virus.", "preferredTerm": "Human Respiratory Syncytial Virus", "submissionValue": "HUMAN RESPIRATORY SYNCYTIAL VIRUS", "synonyms": ["hRSV", "Human RSV", "RSV"]}, {"conceptId": "C14223", "definition": "Any viral organism that can be assigned to the Human T-lymphotrophic virus serotype 1.", "preferredTerm": "HTLV-1", "submissionValue": "HUMAN T-LYMPHOTROPIC VIRUS 1", "synonyms": ["Adult T-cell Leukemia Lymphoma ATLL", "Adult T-cell Lymphoma Virus Type 1", "HTLV-1"]}, {"conceptId": "C14224", "definition": "Any viral organism that can be assigned to the Human T-lymphotrophic virus serotype 2.", "preferredTerm": "HTLV-2", "submissionValue": "HUMAN T-LYMPHOTROPIC VIRUS 2", "synonyms": ["HTLV-2", "HTLV-II"]}, {"conceptId": "C124354", "definition": "Any cestode parasite that can be assigned to the species Hymenolepis diminuta.", "preferredTerm": "Hymenolepis diminuta", "submissionValue": "HYMENOLEPIS DIMINUTA", "synonyms": ["Rat Tapeworm"]}, {"conceptId": "C122323", "definition": "Any cestode parasite that can be assigned to the species Hymenolepis nana.", "preferredTerm": "Hymenolepis nana", "submissionValue": "HYMENOLEPIS NANA", "synonyms": ["Dwarf Tapeworm", "Taenia nana", "Vampirolepis nana"]}, {"conceptId": "C80445", "definition": "Any viral organism that can be assigned to the Influenza A species subtype H1N1.", "preferredTerm": "Influenza A (H1N1) Virus", "submissionValue": "INFLUENZA A VIRUS SUBTYPE H1N1"}, {"conceptId": "C123490", "definition": "Any viral organism that can be assigned to the Influenza A species subtype H5N1.", "preferredTerm": "Influenza A (H5N1) Virus", "submissionValue": "INFLUENZA A VIRUS SUBTYPE H5N1"}, {"conceptId": "C53454", "definition": "Any viral organism that can be assigned to the species Influenza A virus.", "preferredTerm": "Influenza A Virus", "submissionValue": "INFLUENZA A VIRUS", "synonyms": ["FLUAV", "Influenza Virus Type A"]}, {"conceptId": "C53468", "definition": "Any viral organism that can be assigned to the species Influenza B virus.", "preferredTerm": "Influenza B Virus", "submissionValue": "INFLUENZA B VIRUS", "synonyms": ["FLUBV", "Influenza Virus Type B"]}, {"conceptId": "C97157", "definition": "Any viral organism that can be assigned to the species Influenza C virus.", "preferredTerm": "Influenza C Virus", "submissionValue": "INFLUENZA C VIRUS", "synonyms": ["FLUCV", "Influenza Virus Type C"]}, {"conceptId": "C86445", "definition": "Any bacterial organism that can be assigned to the species Inquilinus limosus.", "preferredTerm": "Inquilinus limosus", "submissionValue": "INQUILINUS LIMOSUS"}, {"conceptId": "C86444", "definition": "Any bacteria that is not assigned to the species level but can be assigned to the Inquilinus genus level.", "preferredTerm": "Inquilinus", "submissionValue": "INQUILINUS"}, {"conceptId": "C122324", "definition": "Any bacterial organism that can be assigned to the species Intestinibacter bartlettii.", "preferredTerm": "Intestinibacter bartlettii", "submissionValue": "INTESTINIBACTER BARTLETTII", "synonyms": ["Clostridium bartlettii"]}, {"conceptId": "C123491", "definition": "Any amoebic organism that can be assigned to the species Iodamoeba butschlii.", "preferredTerm": "Iodamoeba butschlii", "submissionValue": "IODAMOEBA BUTSCHLII"}, {"conceptId": "C122325", "definition": "Any unicellular, eukaryotic organism that is not assigned to the species level but can be assigned to the Isospora genus level.", "preferredTerm": "Isospora", "submissionValue": "ISOSPORA"}, {"conceptId": "C187913", "definition": "Any viral organism that can be assigned to the species Japanese encephalitis virus.", "preferredTerm": "Japanese Encephalitis Virus", "submissionValue": "JAPANESE ENCEPHALITIS VIRUS", "synonyms": ["JEV"]}, {"conceptId": "C14229", "definition": "Any viral organism that can be assigned to the species JC polyomavirus.", "preferredTerm": "JC Virus", "submissionValue": "JC VIRUS", "synonyms": ["Human polyomavirus (type JC)", "Polyomavirus hominis 2", "polyomavirus JC"]}, {"conceptId": "C86446", "definition": "Any bacteria that is not assigned to the species level but can be assigned to the Jeotgalibacillus genus level.", "preferredTerm": "Jeotgalibacillus", "submissionValue": "JEOTGALIBACILLUS"}, {"conceptId": "C86448", "definition": "Any bacterial organism that can be assigned to the species Johnsonella ignava.", "preferredTerm": "Johnsonella ignava", "submissionValue": "JOHNSONELLA IGNAVA"}, {"conceptId": "C86447", "definition": "Any bacteria that is not assigned to the species level but can be assigned to the Johnsonella genus level.", "preferredTerm": "Johnsonella", "submissionValue": "JOHNSONELLA"}, {"conceptId": "C127722", "definition": "Any bacterial organism that can be assigned to the species Kerstersia gyiorum.", "preferredTerm": "Kerstersia gyiorum", "submissionValue": "KERSTERSIA GYIORUM"}, {"conceptId": "C86450", "definition": "Any bacterial organism that can be assigned to the species Kingella denitrificans.", "preferredTerm": "Kingella denitrificans", "submissionValue": "KINGELLA DENITRIFICANS"}, {"conceptId": "C86451", "definition": "Any bacterial organism that can be assigned to the species Kingella kingae.", "preferredTerm": "Kingella kingae", "submissionValue": "KINGELLA KINGAE", "synonyms": ["Moraxella kingae"]}, {"conceptId": "C86452", "definition": "Any bacterial organism that can be assigned to the species Kingella oralis.", "preferredTerm": "Kingella oralis", "submissionValue": "KINGELLA ORALIS"}, {"conceptId": "C86453", "definition": "Any bacterial organism that can be assigned to the species Kingella potus.", "preferredTerm": "Kingella potus", "submissionValue": "KINGELLA POTUS"}, {"conceptId": "C86449", "definition": "Any bacteria that is not assigned to the species level but can be assigned to the Kingella genus level.", "preferredTerm": "Kingella", "submissionValue": "KINGELLA"}, {"conceptId": "C187914", "definition": "Any bacterial organism that can be assigned to the species Klebsiella aerogenes.", "preferredTerm": "Klebsiella aerogenes", "submissionValue": "KLEBSIELLA AEROGENES", "synonyms": ["Aerobacter aerogenes", "Enterobacter aerogenes", "Klebsiella mobilis"]}, {"conceptId": "C86454", "definition": "Any bacterial organism that can be assigned to the species Klebsiella granulomatis.", "preferredTerm": "Klebsiella granulomatis", "submissionValue": "KLEBSIELLA GRANULOMATIS"}, {"conceptId": "C86455", "definition": "Any bacterial organism that can be assigned to the species Klebsiella oxytoca.", "preferredTerm": "Klebsiella oxytoca", "submissionValue": "KLEBSIELLA OXYTOCA"}, {"conceptId": "C139102", "definition": "Any bacterial organism that can be assigned to the species Klebsiella oxytoca and produces extended-spectrum beta-lactamases (ESBL).", "preferredTerm": "Extended-spectrum Beta-lactamase Positive Klebsiella oxytoca", "submissionValue": "KLEBSIELLA OXYTOCA, ESBL", "synonyms": ["Klebsiella oxytoca, Extended-Spectrum Beta-Lactamases"]}, {"conceptId": "C86456", "definition": "Any bacterial organism that can be assigned to the species Klebsiella ozaenae.", "preferredTerm": "Klebsiella ozaenae", "submissionValue": "KLEBSIELLA OZAENAE", "synonyms": ["Klebsiella pneumoniae subsp. ozaenae"]}, {"conceptId": "C86457", "definition": "Any bacterial organism that can be assigned to the species Klebsiella pneumoniae.", "preferredTerm": "Klebsiella pneumoniae", "submissionValue": "KLEBSIELLA PNEUMONIAE"}, {"concep