{"_links": {"parentPackage": {"href": "/mdr/ct/packages/sdtmct-2022-09-30", "title": "SDTM Controlled Terminology Package 51 Effective 2022-09-30", "type": "Terminology"}, "priorVersion": {"href": "/mdr/ct/packages/sdtmct-2022-06-24/codelists/C96778", "title": "CDISC SDTM Tumor or Lesion Properties Test Name Terminology", "type": "Code List"}, "rootItem": {"href": "/mdr/root/ct/sdtmct/codelists/C96778", "title": "Version-agnostic anchor resource for codelist C96778", "type": "Root Value Domain"}, "self": {"href": "/mdr/ct/packages/sdtmct-2022-09-30/codelists/C96778", "title": "CDISC SDTM Tumor or Lesion Properties Test Name Terminology", "type": "Code List"}}, "conceptId": "C96778", "definition": "Terminology relevant to the test names that describe the assessment or measurement of a tumor, lesion or site of disease.", "extensible": "true", "name": "Tumor or Lesion Properties Test Name", "preferredTerm": "CDISC SDTM Tumor or Lesion Properties Test Name Terminology", "submissionValue": "TRTEST", "synonyms": ["Tumor or Lesion Properties Test Name"], "terms": [{"conceptId": "C103347", "definition": "The current value minus the lowest value previously recorded.", "preferredTerm": "Absolute Change From Nadir", "submissionValue": "Absolute Change From Nadir", "synonyms": ["Absolute Change From Nadir"]}, {"conceptId": "C147488", "definition": "The absolute change (positive or negative) in the longest diameter of the lesion from the timepoint at which the product of perpendicular diameters of the lesion is the smallest.", "preferredTerm": "Absolute Change in Longest Diameter From Nadir Product of Perpendicular Diameters Timepoint", "submissionValue": "Absolute Change From PPD Nadir in LDIAM", "synonyms": ["Absolute Change From PPD Nadir in LDIAM"]}, {"conceptId": "C147489", "definition": "The absolute change (positive or negative) in the longest perpendicular of the lesion from the timepoint at which the product of perpendicular diameters of the lesion is the smallest.", "preferredTerm": "Absolute Change in Longest Perpendicular from Nadir Product of Perpendicular Diameters Timepoint", "submissionValue": "Absolute Change From PPD Nadir in LPERP", "synonyms": ["Absolute Change From PPD Nadir in LPERP"]}, {"conceptId": "C135506", "definition": "The current organ enlargement minus the lowest organ enlargement previously recorded. (NCI)", "preferredTerm": "Absolute Change from Nadir in Organ Enlargement", "submissionValue": "Absolute Change Nadir in Organ Enlarge", "synonyms": ["Absolute Change Nadir in Organ Enlarge", "Absolute Change Nadir in Organ Enlargement"]}, {"conceptId": "C112218", "definition": "The current sum of diameters minus the lowest sum of diameters previously recorded.", "preferredTerm": "Absolute Change From Nadir in Sum of Diameter", "submissionValue": "Absolute Change Nadir in Sum of Diam", "synonyms": ["Absolute Change Nadir in Sum of Diam"]}, {"conceptId": "C25244", "definition": "The extent of a 2-dimensional surface enclosed within a boundary. (NCI)", "preferredTerm": "Area", "submissionValue": "Area", "synonyms": ["Area"]}, {"conceptId": "C96566", "definition": "A semiquantitative analysis of the average uptake of analyte by body tissue in relation to the total administered dose of the analyte.", "preferredTerm": "Average Metabolic Standard Uptake Value", "submissionValue": "Average Metabolic Standard Uptake Value", "synonyms": ["Average Metabolic Standard Uptake Value"]}, {"conceptId": "C147490", "definition": "A visually assessed combination of extent and intensity of tracer uptake within the bone marrow.", "preferredTerm": "Bone Marrow Tracer Uptake", "submissionValue": "Bone Marrow Tracer Uptake", "synonyms": ["Bone Marrow Tracer Uptake"]}, {"conceptId": "C126056", "definition": "An indication as to whether calcification is present.", "preferredTerm": "Calcification Indicator", "submissionValue": "Calcification Indicator", "synonyms": ["Calcification Indicator"]}, {"conceptId": "C25285", "definition": "The length of a straight line passing through the center of a circle or sphere and connecting two points on the circumference. (NCI)", "preferredTerm": "Diameter", "submissionValue": "Diameter", "synonyms": ["Diameter"]}, {"conceptId": "C99723", "definition": "A 5 point scale devised to assess the response to treatment of Hodgkin and aggressive Non-Hodgkin lymphoma. (Barrington SF, Mikhaeel NG, Kostakoglu L, Meignan M, et al. Role of imaging in the staging and response assessment of lymphoma: consensus of the International Conference on Malignant Lymphomas Imaging Working Group. J Clin Oncol. 2014 Sep 20;32(27):3048-58.)", "preferredTerm": "London Deauville Criteria Point Scale", "submissionValue": "FDG PET Lymphoma 5PS Score", "synonyms": ["FDG PET Lymphoma 5PS Score"]}, {"conceptId": "C174369", "definition": "An assessment of the severity of a lesion that is heightened or raised above the surface plane of the body.", "preferredTerm": "Severity of Elevated Lesion", "submissionValue": "Lesion Elevation Severity/Intensity", "synonyms": ["Lesion Elevation Severity/Intensity"]}, {"conceptId": "C174367", "definition": "An assessment of the severity of a lesion that has red discoloration.", "preferredTerm": "Severity of Erythematous Lesion", "submissionValue": "Lesion Erythema Severity/Intensity", "synonyms": ["Lesion Erythema Severity/Intensity"]}, {"conceptId": "C119551", "definition": "An indication as to whether lesion failure occurred.", "preferredTerm": "Lesion Failure Indicator", "submissionValue": "Lesion Failure Indicator", "synonyms": ["Lesion Failure Indicator"]}, {"conceptId": "C119556", "definition": "An indication as to whether an appropriate clinical context was present before lesion revascularization occurred.", "preferredTerm": "Lesion Revascularization Clinical Indicator", "submissionValue": "Lesion Revas Clinical Indicator", "synonyms": ["Lesion Revas Clinical Indicator"]}, {"conceptId": "C119555", "definition": "An indication as to whether clinical or functional ischemia is present before lesion revascularization occurred.", "preferredTerm": "Lesion Revascularization Ischemia Indicator", "submissionValue": "Lesion Revas Ischemia Indicator", "synonyms": ["Lesion Revas Ischemia Indicator"]}, {"conceptId": "C119552", "definition": "An indication as to whether repeat revascularization of a lesion occurred.", "preferredTerm": "Lesion Revascularization Indicator", "submissionValue": "Lesion Revascularization Indicator", "synonyms": ["Lesion Revascularization Indicator"]}, {"conceptId": "C174368", "definition": "An assessment of the severity of a lesion that has flaking dead skin and an increase of keratin in the stratum corneum of the lesion.", "preferredTerm": "Severity of Scaling Lesion", "submissionValue": "Lesion Scaling Severity/Intensity", "synonyms": ["Lesion Scaling Severity/Intensity"]}, {"conceptId": "C119553", "definition": "An indication as to whether a performed procedure of a target lesion is considered successful.", "preferredTerm": "Lesion Success Indicator", "submissionValue": "Lesion Success Indicator", "synonyms": ["Lesion Success Indicator"]}, {"conceptId": "C186216", "definition": "A measurement of the distance between two opposite surfaces of a lesion.", "preferredTerm": "Lesion Thickness", "submissionValue": "Lesion Thickness", "synonyms": ["Lesion Thickness"]}, {"conceptId": "C119554", "definition": "An indication as to whether limb failure occurred.", "preferredTerm": "Limb Failure Indicator", "submissionValue": "Limb Failure Indicator", "synonyms": ["Limb Failure Indicator"]}, {"conceptId": "C96684", "definition": "The longest possible length of a straight line passing through the center of a circular or spheroid object that connects two points on the circumference.", "preferredTerm": "Longest Diameter", "submissionValue": "Longest Diameter", "synonyms": ["Longest Diameter"]}, {"conceptId": "C96685", "definition": "The longest possible straight line or plane through a body or figure that is at a right angle to a given line or plane.", "preferredTerm": "Longest Perpendicular", "submissionValue": "Longest Perpendicular", "synonyms": ["Longest Perpendicular", "Short Axis Diameter"]}, {"conceptId": "C124448", "definition": "A condition or state of a lymph node at a particular time.", "preferredTerm": "Lymph Node State", "submissionValue": "Lymph Node State", "synonyms": ["Lymph Node State"]}, {"conceptId": "C103421", "definition": "The verification/confirmation by other methods or modalities that a tumor, which has not been previously seen or characterized, is present in the subject.", "preferredTerm": "New Tumor Confirmation", "submissionValue": "New Tumor Confirmed", "synonyms": ["New Tumor Confirmed"]}, {"conceptId": "C132463", "definition": "The number of lesions within the bone.", "preferredTerm": "Number of Bone Lesions", "submissionValue": "Number of Bone Lesions", "synonyms": ["Number of Bone Lesions"]}, {"conceptId": "C124446", "definition": "The number of lymph nodes that were examined.", "preferredTerm": "Number of Lymph Nodes Examined", "submissionValue": "Number of Lymph Nodes Examined", "synonyms": ["Number of Lymph Nodes Examined"]}, {"conceptId": "C124447", "definition": "The number of subject lymph nodes that were positive for presence of disease.", "preferredTerm": "Number of Lymph Nodes Positive", "submissionValue": "Number of Lymph Nodes Positive", "synonyms": ["Number of Lymph Nodes Positive"]}, {"conceptId": "C132464", "definition": "The number of new lesions within the bone, in comparison to a reference timepoint.", "preferredTerm": "Number of New Bone Lesions", "submissionValue": "Number of New Bone Lesions", "synonyms": ["Number of New Bone Lesions"]}, {"conceptId": "C135507", "definition": "A quantitative measurement of the increase in organ size or dimension, relative to a defined value.", "preferredTerm": "Quantitative Organ Enlargement Assessment", "submissionValue": "Organ Enlargement, Quantitative", "synonyms": ["Organ Enlargement, Quantitative"]}, {"conceptId": "C135508", "definition": "A condition or state of an organ at a particular time.", "preferredTerm": "Organ State", "submissionValue": "Organ State", "synonyms": ["Organ State"]}, {"conceptId": "C135509", "definition": "The linear extent along the craniocaudal axis from one end of an organ to the other end. (NCI)", "preferredTerm": "Organ Craniocaudal Length Measurement", "submissionValue": "Organ Vertical Length", "synonyms": ["Organ Vertical Length"]}, {"conceptId": "C139128", "definition": "A visually assessed combination of extent and intensity of tracer uptake, as compared to baseline.", "preferredTerm": "Overall Tracer Uptake Compared to Baseline", "submissionValue": "Overall Tracer Uptake Compared to BL", "synonyms": ["Overall Tracer Uptake Compared to Baseline", "Overall Tracer Uptake Compared to BL"]}, {"conceptId": "C150896", "definition": "A visually assessed combination of extent and intensity of tracer uptake, as compared to nadir.", "preferredTerm": "Overall Tracer Uptake Compared to Nadir", "submissionValue": "Overall Tracer Uptake Compared to Nadir", "synonyms": ["Overall Tracer Uptake Compared to Nadir"]}, {"conceptId": "C124449", "definition": "A condition or state of the lesion with regards to its palpability status at a particular point in time.", "preferredTerm": "Palpable State", "submissionValue": "Palpable State", "synonyms": ["Palpable State"]}, {"conceptId": "C135510", "definition": "The (current organ enlargement minus the baseline organ enlargement) divided by the baseline organ enlargement, multiplied by 100. (NCI)", "preferredTerm": "Percent Change from Baseline in Organ Enlargement", "submissionValue": "Percent Change Baseline in Organ Enlarge", "synonyms": ["Percent Change Baseline in Organ Enlarge", "Percent Change Baseline in Organ Enlargement"]}, {"conceptId": "C112370", "definition": "The (current sum of diameters minus the baseline sum of diameters) divided by the baseline sum of diameters, multiplied by 100.", "preferredTerm": "Percent Change From Baseline in Sum of Diameter", "submissionValue": "Percent Change Baseline in Sum of Diam", "synonyms": ["Percent Change Baseline in Sum of Diam"]}, {"conceptId": "C132264", "definition": "The (current sum of products of perpendicular diameters minus the baseline sum of products of perpendicular diameters) divided by the baseline sum of products of perpendicular diameters, multiplied by 100.", "preferredTerm": "Percent Change From Baseline in Sum of Products of Perpendicular Diameter", "submissionValue": "Percent Change Baseline in Sum of PPD", "synonyms": ["Percent Change Baseline in Sum of PPD"]}, {"conceptId": "C112372", "definition": "The (current sum of volumes minus the baseline sum of volumes) divided by the baseline sum of volumes, multiplied by 100.", "preferredTerm": "Percent Change From Baseline in Sum of Volume", "submissionValue": "Percent Change Baseline in Sum of Volume", "synonyms": ["Percent Change Baseline in Sum of Volume"]}, {"conceptId": "C112371", "definition": "The (current sum of longest diameters minus the baseline sum of longest diameters) divided by the baseline sum of longest diameters, multiplied by 100.", "preferredTerm": "Percent Change From Baseline in Sum of Longest Diameter", "submissionValue": "Percent Change Baseline Sum Longest Diam", "synonyms": ["Percent Change Baseline Sum Longest Diam"]}, {"conceptId": "C96621", "definition": "The (current value minus the baseline value) divided by the baseline value, multiplied by 100.", "preferredTerm": "Percent Change From Baseline", "submissionValue": "Percent Change From Baseline", "synonyms": ["Percent Change From Baseline"]}, {"conceptId": "C96622", "definition": "The (current value minus the lowest value previously recorded) divided by the lowest value previously recorded, multiplied by 100.", "preferredTerm": "Percent Change From Nadir", "submissionValue": "Percent Change From Nadir", "synonyms": ["Percent Change From Nadir"]}, {"conceptId": "C135511", "definition": "The (current organ enlargement minus the lowest organ enlargement previously recorded) divided by the lowest organ enlargement previously recorded, multiplied by 100. (NCI)", "preferredTerm": "Percent Change from Nadir in Organ Enlargement", "submissionValue": "Percent Change Nadir in Organ Enlarge", "synonyms": ["Percent Change Nadir in Organ Enlarge", "Percent Change Nadir in Organ Enlargement"]}, {"conceptId": "C135512", "definition": "The (current product of perpendicular diameters minus the lowest product of perpendicular diameters previously recorded) divided by the lowest product of perpendicular diameters previously recorded, multiplied by 100.", "preferredTerm": "Percent Change from Nadir in Product of Perpendicular Diameters", "submissionValue": "Percent Change Nadir in PPD", "synonyms": ["Percent Change Nadir in PPD"]}, {"conceptId": "C112374", "definition": "The (current sum of longest diameters minus the lowest sum of longest diameters previously recorded) divided by the lowest sum of longest diameters previously recorded, multiplied by 100.", "preferredTerm": "Percent Change From Nadir in Sum of Longest Diameter", "submissionValue": "Percent Change Nadir in Sum Longest Diam", "synonyms": ["Percent Change Nadir in Sum Longest Diam"]}, {"conceptId": "C112373", "definition": "The (current sum of diameters minus the lowest sum of diameters previously recorded) divided by the lowest sum of diameters previously recorded, multiplied by 100.", "preferredTerm": "Percent Change From Nadir in Sum of Diameter", "submissionValue": "Percent Change Nadir in Sum of Diam", "synonyms": ["Percent Change Nadir in Sum of Diam"]}, {"conceptId": "C132265", "definition": "The (current sum of products of perpendicular diameters minus the lowest sum of products of perpendicular diameters previously recorded) divided by the lowest sum of products of perpendicular diameters previously recorded, multiplied by 100.", "preferredTerm": "Percent Change From Nadir in Sum of Products of Perpendicular Diameters", "submissionValue": "Percent Change Nadir in Sum of PPD", "synonyms": ["Percent Change Nadir in Sum of PPD"]}, {"conceptId": "C178054", "definition": "The (current sum of volumes minus the lowest sum of volumes previously recorded) divided by the lowest sum of volumes previously recorded, multiplied by 100.", "preferredTerm": "Percent Change Nadir in Sum of Volume", "submissionValue": "Percent Change Nadir in Sum of Volume", "synonyms": ["Percent Change Nadir in Sum of Volume"]}, {"conceptId": "C135513", "definition": "The longest diameter multiplied by its longest perpendicular diameter.", "preferredTerm": "Product of Perpendicular Diameters", "submissionValue": "Product of Perpendicular Diameters", "synonyms": ["PPD", "Product of Perpendicular Diameters"]}, {"conceptId": "C96627", "definition": "The transparency of a material to the passage of X-rays and other forms of radiation.", "preferredTerm": "Radiodensity", "submissionValue": "Radiodensity", "synonyms": ["Radiodensity"]}, {"conceptId": "C95012", "definition": "The standardized (by total body weight) uptake value of the pixel or voxel with the strongest signal, within a defined area or volume of interest (VOI).", "preferredTerm": "Standardized Uptake Value Maximum", "submissionValue": "Standardized Uptake Value Maximum", "synonyms": ["Standardized Uptake Value Maximum"]}, {"conceptId": "C181544", "definition": "The arithmetic mean of a group of standardized (by total body weight) uptake values within a defined area or volume of interest (VOI).", "preferredTerm": "Standardized Uptake Value Mean", "submissionValue": "Standardized Uptake Value Mean", "synonyms": ["Standardized Uptake Value Mean"]}, {"conceptId": "C95013", "definition": "The maximum average (peak) of standardized (by total body weight) uptake value distribution, generated by a histogram of all SUV values, across a defined area or volume of interest (VOI).", "preferredTerm": "Standardized Uptake Value Peak", "submissionValue": "Standardized Uptake Value Peak", "synonyms": ["Standardized Uptake Value Peak"]}, {"conceptId": "C103441", "definition": "A calculation of the aggregated diameter values for tumors other than the lymph nodes.", "preferredTerm": "Sum of Diameters of Non Lymph Node Tumors", "submissionValue": "Sum Diameters of Non Lymph Node Tumors", "synonyms": ["Sum Diameters of Non Lymph Node Tumors"]}, {"conceptId": "C96631", "definition": "A calculation of the aggregated diameter values.", "preferredTerm": "Sum of Diameters", "submissionValue": "Sum of Diameter", "synonyms": ["Sum of Diameter"]}, {"conceptId": "C96632", "definition": "A calculation of the aggregated longest diameter values.", "preferredTerm": "Sum of Longest Diameters", "submissionValue": "Sum of Longest Diameter", "synonyms": ["Sum of Longest Diameter"]}, {"conceptId": "C96633", "definition": "A calculation of the aggregated longest perpendicular values.", "preferredTerm": "Sum of Longest Perpendiculars", "submissionValue": "Sum of Longest Perpendicular", "synonyms": ["Sum of Longest Perpendicular"]}, {"conceptId": "C132261", "definition": "The result of the addition of the products of perpendicular diameters.", "preferredTerm": "Sum of Products of Perpendicular Diameters", "submissionValue": "Sum of Products of Perpendicular Diam", "synonyms": ["SPD", "Sum of Products of Perpendicular Diam", "Sum of Products of Perpendicular Diameters"]}, {"conceptId": "C96634", "definition": "A calculation of the aggregated diameter values taken from the viable portion of the tumor mass.", "preferredTerm": "Sum of Viable Diameters", "submissionValue": "Sum of Viable Diameter", "synonyms": ["Sum of Viable Diameter"]}, {"conceptId": "C96635", "definition": "A calculation of the aggregated volume values.", "preferredTerm": "Sum of Volumes", "submissionValue": "Sum of Volume", "synonyms": ["Sum of Volume"]}, {"conceptId": "C181545", "definition": "The standardized uptake value corrected for lean body mass of the pixel or voxel with the strongest signal, within a defined area or volume of interest (VOI).", "preferredTerm": "Maximum Standardized Uptake Value Corrected for Lean Body Mass", "submissionValue": "SUV Maximum Corrected for Lean Body Mass", "synonyms": ["Standardized Uptake Value Maximum Corrected for Lean Body Mass", "SUV Maximum Corrected for Lean Body Mass"]}, {"conceptId": "C181546", "definition": "The arithmetic mean of a group of standardized uptake values corrected for lean body mass within a defined area or volume of interest (VOI).", "preferredTerm": "Mean Standardized Uptake Value Corrected for Lean Body Mass", "submissionValue": "SUV Mean Corrected for Lean Body Mass", "synonyms": ["Standardized Uptake Value Mean Corrected for Lean Body Mass", "SUV Mean Corrected for Lean Body Mass"]}, {"conceptId": "C181547", "definition": "The peak of standardized uptake value corrected for lean body mass distribution, generated by a histogram of all SUV values, across a defined area or volume of interest (VOI).", "preferredTerm": "Peak Standardized Uptake Value Corrected for Lean Body Mass", "submissionValue": "SUV Peak Corrected for Lean Body Mass", "synonyms": ["Standardized Uptake Value Peak Corrected for Lean Body Mass", "SUV Peak Corrected for Lean Body Mass"]}, {"conceptId": "C96643", "definition": "A condition or state of a tumor at a particular time.", "preferredTerm": "Tumor Status", "submissionValue": "Tumor State", "synonyms": ["Tumor State"]}, {"conceptId": "C132490", "definition": "An indication as to whether there are two or more new bone lesions, in comparison to a reference timepoint.", "preferredTerm": "Two or More New Bone Lesions Indicator", "submissionValue": "Two or More New Bone Lesions Indicator", "synonyms": ["Two or More New Bone Lesions Indicator"]}, {"conceptId": "C132465", "definition": "An indication as to whether there are two or more bone lesions previously identified as new and are considered to be persisting.", "preferredTerm": "Two or More Persisting New Bone Lesions Indicator", "submissionValue": "Two or More Persist New Bone Lesions Ind", "synonyms": ["Two or More Persist New Bone Lesions Ind", "Two or More Persisting New Bone Lesions Indicator"]}, {"conceptId": "C119557", "definition": "An indication as to whether vessel failure occurred.", "preferredTerm": "Vessel Failure Indicator", "submissionValue": "Vessel Failure Indicator", "synonyms": ["Vessel Failure Indicator"]}, {"conceptId": "C119558", "definition": "An indication as to whether an artery is patent (free of TLR or restenosis) following intervention.", "preferredTerm": "Vessel Patency Indicator", "submissionValue": "Vessel Patency Indicator", "synonyms": ["Vessel Patency Indicator"]}, {"conceptId": "C119559", "definition": "An indication as to whether repeat revascularization of an artery containing a lesion occurred.", "preferredTerm": "Vessel Revascularization Indicator", "submissionValue": "Vessel Revascularization Indicator", "synonyms": ["Vessel Revascularization Indicator"]}, {"conceptId": "C96646", "definition": "The diameter of the portion of the tumor mass that is capable of growth, proliferation and metastasis.", "preferredTerm": "Viable Tumor Diameter", "submissionValue": "Viable Diameter", "synonyms": ["Viable Diameter"]}, {"conceptId": "C74720", "definition": "A measurement of the volume of a biological specimen.", "preferredTerm": "Volume Measurement", "submissionValue": "Volume", "synonyms": ["Volume"]}]}