{"_links": {"parentPackage": {"href": "/mdr/ct/packages/sendct-2022-06-24", "title": "SEND Controlled Terminology Package 50 Effective 2022-06-24", "type": "Terminology"}, "priorVersion": {"href": "/mdr/ct/packages/sendct-2022-03-25/codelists/C120537", "title": "CDISC SEND Vital Signs Test Name Terminology", "type": "Code List"}, "rootItem": {"href": "/mdr/root/ct/sendct/codelists/C120537", "title": "Version-agnostic anchor resource for codelist C120537", "type": "Root Value Domain"}, "self": {"href": "/mdr/ct/packages/sendct-2022-06-24/codelists/C120537", "title": "CDISC SEND Vital Signs Test Name Terminology", "type": "Code List"}}, "conceptId": "C120537", "definition": "The name given to the test name that analyzes a vital sign in nonclinical studies.", "extensible": "true", "name": "SEND Vital Signs Test Name", "preferredTerm": "CDISC SEND Vital Signs Test Name Terminology", "submissionValue": "SVSTST", "synonyms": ["SEND Vital Signs Test Name"], "terms": [{"conceptId": "C60832", "definition": "A measurement of the oxygen-hemoglobin saturation of a volume of blood.", "preferredTerm": "Oxygen Saturation Measurement", "submissionValue": "Oxygen Saturation", "synonyms": ["Oxygen Saturation"]}, {"conceptId": "C25206", "definition": "The property of a body or region of space that determines whether or not there will be a net flow of heat into it or out of it from a neighboring body or region and in which direction (if any) the heat will flow, perceptible by living organism as a somatic sensation of cold or heat. It is a measure of the average translational kinetic energy associated with the disordered microscopic motion of atoms and molecules. Temperature is measured in one of the three standard temperature scales: Celsius, Kelvin, and Fahrenheit. (NCI)", "preferredTerm": "Temperature", "submissionValue": "Temperature", "synonyms": ["Temperature"]}]}