{"_links": {"parentPackage": {"href": "/mdr/ct/packages/sendct-2022-06-24", "title": "SEND Controlled Terminology Package 50 Effective 2022-06-24", "type": "Terminology"}, "priorVersion": {"href": "/mdr/ct/packages/sendct-2022-03-25/codelists/C120535", "title": "CDISC SEND Respiratory Test Name Terminology", "type": "Code List"}, "rootItem": {"href": "/mdr/root/ct/sendct/codelists/C120535", "title": "Version-agnostic anchor resource for codelist C120535", "type": "Root Value Domain"}, "self": {"href": "/mdr/ct/packages/sendct-2022-06-24/codelists/C120535", "title": "CDISC SEND Respiratory Test Name Terminology", "type": "Code List"}}, "conceptId": "C120535", "definition": "Terminology related to the non-clinical respiratory test name codelist.", "extensible": "true", "name": "SEND Respiratory Test Name", "preferredTerm": "CDISC SEND Respiratory Test Name Terminology", "submissionValue": "SRETST", "synonyms": ["SEND Respiratory Test Name"], "terms": [{"conceptId": "C120927", "definition": "A measurement of respiratory tract resistance to airflow during inspiration and expiration.", "preferredTerm": "Airway Resistance", "submissionValue": "Airway Resistance", "synonyms": ["Airway Resistance"]}, {"conceptId": "C158354", "definition": "A measurement of the apnea duration, determined by total sleep time minus the sum of inspiration time and expiration time.", "preferredTerm": "Apnea Time", "submissionValue": "Apnea Time", "synonyms": ["Apnea Time"]}, {"conceptId": "C120928", "definition": "An assessment of the amount of air that is being inspired and expired.", "preferredTerm": "Depth of Respiration", "submissionValue": "Depth of Respiration", "synonyms": ["Depth of Respiration"]}, {"conceptId": "C158355", "definition": "The amount of time between one breath to the next breath calculated by inspiration time plus expiration time, per single respiratory cycle.", "preferredTerm": "Elapsed Time Between Breaths", "submissionValue": "Elapsed Time Between Breaths", "synonyms": ["Elapsed Time Between Breaths"]}, {"conceptId": "C120929", "definition": "The brief period at the end of exhalation when respiration ceases to adjust for oxygen consumption. The length of the pause varies with oxygen demand.", "preferredTerm": "End Expiratory Pause", "submissionValue": "End Expiratory Pause", "synonyms": ["End Expiratory Pause"]}, {"conceptId": "C120930", "definition": "The brief period at the end of inhalation when respiration ceases to adjust for oxygen consumption. The length of the pause varies with oxygen demand.", "preferredTerm": "End Inspiratory Pause", "submissionValue": "End Inspiratory Pause", "synonyms": ["End Inspiratory Pause"]}, {"conceptId": "C120937", "definition": "A unitless index of airway hyperreactivity used to evaluate changes in the shape of the airflow pattern of a subject using a whole-body flow plethysmograph.", "preferredTerm": "Enhanced Pause", "submissionValue": "Enhanced Pause", "synonyms": ["Enhanced Pause"]}, {"conceptId": "C120931", "definition": "The time required to exhale 63.2% of the total expiratory volume, as measured from the start of exhalation.", "preferredTerm": "Expiration Relaxation Time", "submissionValue": "Expiration Relaxation Time", "synonyms": ["Expiration Relaxation Time"]}, {"conceptId": "C120932", "definition": "The amount of time it takes for exhalation of air to occur.", "preferredTerm": "Expiratory Time", "submissionValue": "Expiration Time", "synonyms": ["Expiration Time"]}, {"conceptId": "C158353", "definition": "The rate of gas flow during exhalation, beginning at the point at which tidal volume is decreased by 50%.", "preferredTerm": "Expiratory Flow 50%", "submissionValue": "Expiratory Flow 50%", "synonyms": ["Expiratory Flow 50%"]}, {"conceptId": "C120933", "definition": "Volume of air that a subject with fully inflated lungs can breathe out per unit time.", "preferredTerm": "Forced Expiratory Volume", "submissionValue": "Forced Expiratory Volume", "synonyms": ["Forced Expiratory Volume"]}, {"conceptId": "C120934", "definition": "The amount of time it takes for inhalation of air to occur.", "preferredTerm": "Inspiratory Time", "submissionValue": "Inspiration Time", "synonyms": ["Inspiration Time"]}, {"conceptId": "C120935", "definition": "The mean pressure of the blood within the pulmonary circulation. The pulmonary pressure may be directly measured by insertion of an intra-arterial catheter connected to a transducer.", "preferredTerm": "Mean Pulmonary Arterial Pressure", "submissionValue": "Mean Pulmonary Arterial Pressure", "synonyms": ["Mean Pulmonary Arterial Pressure"]}, {"conceptId": "C186263", "definition": "The amount of gas inspired or expired in one minute divided by body weight of the subject in kilograms.", "preferredTerm": "Minute Volume per Kilogram", "submissionValue": "Minute Volume per Kilogram", "synonyms": ["Minute Volume per Kilogram"]}, {"conceptId": "C120936", "definition": "The amount of gas inspired or expired in one minute.", "preferredTerm": "Minute Volume", "submissionValue": "Minute Volume", "synonyms": ["Minute Volume"]}, {"conceptId": "C163739", "definition": "A measurement of the minute volume, which has been calculated using the corrected tidal volume.", "preferredTerm": "Corrected Minute Volume", "submissionValue": "Minute Volume, Corrected", "synonyms": ["Minute Volume Adjusted", "Minute Volume, Corrected", "Mvadj"]}, {"conceptId": "C186264", "definition": "Maximum flow rate generated during expiration divided by body weight of the subject in kilograms.", "preferredTerm": "Peak Expiratory Flow per Kilogram", "submissionValue": "Peak Expiratory Flow per Kilogram", "synonyms": ["Peak Expiratory Flow per Kilogram"]}, {"conceptId": "C41372", "definition": "The maximum rate of exhalation.", "preferredTerm": "Peak Expiratory Flow", "submissionValue": "Peak Expiratory Flow", "synonyms": ["Peak Expiratory Flow"]}, {"conceptId": "C120938", "definition": "The peak pressure in the lungs during expiration.", "preferredTerm": "Peak Expiratory Pressure", "submissionValue": "Peak Expiratory Pressure", "synonyms": ["Peak Expiratory Pressure"]}, {"conceptId": "C186265", "definition": "Maximum flow rate generated during inspiration divided by body weight of the subject in kilograms.", "preferredTerm": "Peak Inspiratory Flow per Kilogram", "submissionValue": "Peak Inspiratory Flow per Kilogram", "synonyms": ["Peak Inspiratory Flow per Kilogram"]}, {"conceptId": "C120939", "definition": "The maximum rate of inhalation.", "preferredTerm": "Peak Inspiratory Flow Rate", "submissionValue": "Peak Inspiratory Flow", "synonyms": ["Peak Inspiratory Flow"]}, {"conceptId": "C120940", "definition": "The maximum pressure of inhaled air.", "preferredTerm": "Peak Inspiratory Pressure", "submissionValue": "Peak Inspiratory Pressure", "synonyms": ["Peak Inspiratory Pressure"]}, {"conceptId": "C120942", "definition": "The elasticity of the pulmonary walls.", "preferredTerm": "Pulmonary Compliance", "submissionValue": "Pulmonary Compliance", "synonyms": ["Pulmonary Compliance"]}, {"conceptId": "C120941", "definition": "The blood pressure in the pulmonary artery after the contraction of the heart while the chambers of the heart refill with blood.", "preferredTerm": "Pulmonary Artery Diastolic Pressure", "submissionValue": "Pulmonary Diastolic Pressure", "synonyms": ["Pulmonary Diastolic Pressure"]}, {"conceptId": "C120943", "definition": "The blood pressure in the pulmonary artery during the contraction of the left ventricle of the heart.", "preferredTerm": "Pulmonary Artery Systolic Pressure", "submissionValue": "Pulmonary Systolic Pressure", "synonyms": ["Pulmonary Systolic Pressure"]}, {"conceptId": "C49678", "definition": "The rate of breathing (inhalation and exhalation) measured within in a unit time, usually expressed as breaths per minute. (NCI)", "preferredTerm": "Respiratory Rate", "submissionValue": "Respiratory Rate", "synonyms": ["Respiratory Rate"]}, {"conceptId": "C186266", "definition": "The volume of air moved into and out of the lungs during breathing at rest divided by body weight of the subject in kilograms.", "preferredTerm": "Tidal Volume per Kilogram", "submissionValue": "Tidal Volume per Kilogram", "synonyms": ["Tidal Volume per Kilogram"]}, {"conceptId": "C111324", "definition": "The volume of air moved into and out of the lungs during breathing at rest.", "preferredTerm": "Tidal Volume", "submissionValue": "Tidal Volume", "synonyms": ["Tidal Volume"]}, {"conceptId": "C163740", "definition": "A measurement of the tidal volume, corrected using an adjustment factor that takes into account temperature, pressure, and humidity.", "preferredTerm": "Corrected Tidal Volume", "submissionValue": "Tidal Volume, Corrected", "synonyms": ["Tidal Volume, Adjusted", "Tidal Volume, Corrected", "Tvadj"]}, {"conceptId": "C111325", "definition": "The total volume of air in the lungs after maximum inhalation.", "preferredTerm": "Total Lung Capacity", "submissionValue": "Total Lung Capacity", "synonyms": ["Total Lung Capacity"]}]}