{"_links": {"parentPackage": {"href": "/mdr/ct/packages/sendct-2022-06-24", "title": "SEND Controlled Terminology Package 50 Effective 2022-06-24", "type": "Terminology"}, "priorVersion": {"href": "/mdr/ct/packages/sendct-2022-03-25/codelists/C184332", "title": "CDISC SEND Control Type Terminology", "type": "Code List"}, "rootItem": {"href": "/mdr/root/ct/sendct/codelists/C184332", "title": "Version-agnostic anchor resource for codelist C184332", "type": "Root Value Domain"}, "self": {"href": "/mdr/ct/packages/sendct-2022-06-24/codelists/C184332", "title": "CDISC SEND Control Type Terminology", "type": "Code List"}}, "conceptId": "C184332", "definition": "Terminology relevant to the types of controls in nonclinical studies.", "extensible": "true", "name": "SEND Control Type", "preferredTerm": "CDISC SEND Control Type Terminology", "submissionValue": "STCNTRL", "synonyms": ["SEND Control Type"], "terms": [{"conceptId": "C184730", "definition": "A type of negative control primarily used in inhalation studies in which only air is administered to the test system.", "preferredTerm": "Air Control", "submissionValue": "AIR CONTROL"}, {"conceptId": "C186267", "definition": "A type of negative control wherein the subject serves as its own control by receiving both control treatment and study treatment, used when the control is an element rather than an arm within the trial design.", "preferredTerm": "Block Control", "submissionValue": "BLOCK CONTROL"}, {"conceptId": "C64357", "definition": "A comparator that is expected to yield a negative result, to establish a reference baseline.", "preferredTerm": "Negative Control", "submissionValue": "NEGATIVE CONTROL"}, {"conceptId": "C184731", "definition": "A type of negative control in which the amount of food provided to the control group matches the amount of food consumed by a group receiving the investigational test agent.", "preferredTerm": "Pair-Fed Control", "submissionValue": "PAIR-FED CONTROL"}, {"conceptId": "C64356", "definition": "A comparator that is expected to yield a positive result, to establish a reference baseline.", "preferredTerm": "Positive Control", "submissionValue": "POSITIVE CONTROL"}, {"conceptId": "C184727", "definition": "A type of negative control in which a procedure is performed that mimics the procedure under study but does not include investigational processes or components.", "preferredTerm": "Sham Control", "submissionValue": "SHAM CONTROL"}, {"conceptId": "C184729", "definition": "A type of negative control in which nothing is administered, delivered, or done to the test system.", "preferredTerm": "Untreated Control", "submissionValue": "UNTREATED CONTROL"}, {"conceptId": "C184728", "definition": "A type of negative control containing the substance used for administration or delivery of the investigational test agent.", "preferredTerm": "Vehicle Control", "submissionValue": "VEHICLE CONTROL"}]}