{"_links": {"parentPackage": {"href": "/mdr/ct/packages/sendct-2022-06-24", "title": "SEND Controlled Terminology Package 50 Effective 2022-06-24", "type": "Terminology"}, "priorVersion": {"href": "/mdr/ct/packages/sendct-2022-03-25/codelists/C185848", "title": "CDISC SEND Microscopy Reproductive Cycle Phase Response Terminology", "type": "Code List"}, "rootItem": {"href": "/mdr/root/ct/sendct/codelists/C185848", "title": "Version-agnostic anchor resource for codelist C185848", "type": "Root Value Domain"}, "self": {"href": "/mdr/ct/packages/sendct-2022-06-24/codelists/C185848", "title": "CDISC SEND Microscopy Reproductive Cycle Phase Response Terminology", "type": "Code List"}}, "conceptId": "C185848", "definition": "Terminology related to the reproductive cycle phase determined by qualitative microscopic evaluation.", "extensible": "true", "name": "Microscopy Reproductive Cycle Phase Response", "preferredTerm": "CDISC SEND Microscopy Reproductive Cycle Phase Response Terminology", "submissionValue": "MIRCP", "synonyms": ["Microscopy Reproductive Cycle Phase Response"], "terms": [{"conceptId": "C186247", "definition": "Morphologic appearance in female reproductive tissues representative of anestrus.", "preferredTerm": "Anestrus", "submissionValue": "ANESTRUS"}, {"conceptId": "C186248", "definition": "Morphologic appearance in female reproductive tissues representative of diestrus.", "preferredTerm": "Diestrus", "submissionValue": "DIESTRUS"}, {"conceptId": "C186249", "definition": "Morphologic appearance in female reproductive tissues representative of estrus.", "preferredTerm": "Estrus", "submissionValue": "ESTRUS"}, {"conceptId": "C186250", "definition": "Morphologic appearance in female reproductive tissues representative of the follicular phase of the menstrual cycle.", "preferredTerm": "Follicular Phase", "submissionValue": "FOLLICULAR PHASE"}, {"conceptId": "C25531", "definition": "In an early period of life or development or growth; not fully developed.", "preferredTerm": "Immature", "submissionValue": "IMMATURE"}, {"conceptId": "C48658", "definition": "Cannot distinguish between two or more possible values in the current context. (NCI)", "preferredTerm": "Indeterminate", "submissionValue": "INDETERMINATE", "synonyms": ["Inconclusive"]}, {"conceptId": "C186251", "definition": "Morphologic appearance in female reproductive tissues of a primate representative of the luteal phase of the menstrual cycle.", "preferredTerm": "Luteal Phase", "submissionValue": "LUTEAL PHASE"}, {"conceptId": "C186252", "definition": "Morphologic appearance in female reproductive tissues of a primate representative of the menstrual phase of the menstrual cycle.", "preferredTerm": "Menstrual Phase", "submissionValue": "MENSTRUAL PHASE"}, {"conceptId": "C186253", "definition": "Morphologic appearance in female reproductive tissues representative of metestrus.", "preferredTerm": "Metestrus", "submissionValue": "METESTRUS"}, {"conceptId": "C186254", "definition": "Morphologic appearance in female reproductive tissues representative of proestrus.", "preferredTerm": "Proestrus", "submissionValue": "PROESTRUS"}, {"conceptId": "C186255", "definition": "Morphologic appearance in female reproductive tissues of a primate representative of the regenerative phase of the menstrual cycle.", "preferredTerm": "Regenerative Phase", "submissionValue": "REGENERATIVE PHASE"}, {"conceptId": "C186256", "definition": "The period of the reproductive lifecycle indicated by cessation of reproductive system function.", "preferredTerm": "Reproductive Senescence", "submissionValue": "SENESCENT"}]}