{"_links": {"parentPackage": {"href": "/mdr/ct/packages/sendct-2022-06-24", "title": "SEND Controlled Terminology Package 50 Effective 2022-06-24", "type": "Terminology"}, "priorVersion": {"href": "/mdr/ct/packages/sendct-2022-03-25/codelists/C77530", "title": "CDISC SEND Laboratory Animal Strain Terminology", "type": "Code List"}, "rootItem": {"href": "/mdr/root/ct/sendct/codelists/C77530", "title": "Version-agnostic anchor resource for codelist C77530", "type": "Root Value Domain"}, "self": {"href": "/mdr/ct/packages/sendct-2022-06-24/codelists/C77530", "title": "CDISC SEND Laboratory Animal Strain Terminology", "type": "Code List"}}, "conceptId": "C77530", "definition": "Terminology used to identify the vendor-supplied strain, substrain or breed designation for the test system under study. It may combine the background strain, substrain, and associated genetic modifications as supplied by the vendor.", "extensible": "true", "name": "Strain/Substrain", "preferredTerm": "CDISC SEND Laboratory Animal Strain Terminology", "submissionValue": "STRAIN", "synonyms": ["Strain/Substrain"], "terms": [{"conceptId": "C37320", "definition": "Derived by Dunn (1928) from a mouse/chinchilla cross, the 129/Sv substrain has been recognized as a member of the Parental subgroup of substrains.", "preferredTerm": "129/Sv Mouse", "submissionValue": "129/SV"}, {"conceptId": "C14650", "definition": "Derived by Strong (1921) from a cross between the Cold Spring harbor and Bagg Albino stocks. The A strain mouse has an albino coat (genotype a,b,c) and is susceptible to carcinogen-induced lung adenomas and cleft palate formation in response to cortisone. Also, the strain has defective macrophage function reminiscent of lps mutation common to other strains.", "preferredTerm": "A/J Mouse", "submissionValue": "A/J"}, {"conceptId": "C14392", "definition": "Derived by Curtiss and Dunning (1926) at Columbia University by crossing an inbred August rat with an inbred 2331 Copenhagen rat, to Heston (1945) and then to the NIH (1950). The ACI rat strain is agouti in color with white belly and feet, and genotype A hi. (NCI)", "preferredTerm": "ACI, Rat Strain", "submissionValue": "ACI"}, {"conceptId": "C76360", "definition": "The diurnal primate, Chlorocebus sabaeus.", "preferredTerm": "African Green Monkey", "submissionValue": "AFRICAN GREEN"}, {"conceptId": "C14505", "definition": "Originally disseminated by Detweiler and carried by Furth (1928-1936) and the Rockefeller Institute for subsequent generations. The AKR mouse has an albino coat (genotype a, B, c) and is highly susceptible to leukemias. The strain is viremic from birth in that all tissues express the AKV retrovirus and copies of the AKV genome are integrated in the mouse genome, which is associated with leukemia development. The AKR strain is also a source of the Thy1.1 thymocyte antigen, which is expressed on thymocyte, bone marrow and T cell progenitors and is used as a marker for a variety of stem cells.", "preferredTerm": "AKR/J Mouse", "submissionValue": "AKR/J"}, {"conceptId": "C98707", "definition": "A partial congenic mouse with background strain of C57BL/6 and 129/Sv chimera, containing a heterozygous or homozygous p53 mutation. (NCI)", "preferredTerm": "B6.129-Trp53tm1Brd N5", "submissionValue": "B6.129-Trp53tm1Brd N5"}, {"conceptId": "C76182", "definition": "Derived from a cross between a C57BL/6 female and a C3H male, this hybrid strain is commonly used in the production of transgenic mice.", "preferredTerm": "B6C3 Mouse", "submissionValue": "B6C3F1"}, {"conceptId": "C14252", "definition": "Multiple species of large terrestrial monkeys in the genus Papio, including P. hamadryas, P. papio, P. anubis, P. cynocephalus and P. ursinus.", "preferredTerm": "Baboon", "submissionValue": "BABOON"}, {"conceptId": "C37357", "definition": "Derived from albino mice stocks originally disseminated by Bagg (1913) to Snell in 1932 that has an albino coat with genotype A,b,c.", "preferredTerm": "BALB/c Mouse", "submissionValue": "BALB/C"}, {"conceptId": "C53897", "definition": "The Beagle is a hardy, sturdy squarely-built, small hound, with a short coat in tri-color, red and white, orange and white, or lemon and white. The ears are long, wide and pendant. There are two height classes, 13-15 inches (33-38 cm) and under 13 inches (33 cm). Weight: 20-25 pounds (9-11 kg).", "preferredTerm": "Beagle", "submissionValue": "BEAGLE"}, {"conceptId": "C14395", "definition": "An inbred strain of Rattus norvegicus derived from Silvers and Billingham stock (1958), characterized by a non-agouti brown coat color and RT1n MHC haplotype.", "preferredTerm": "BN, Rat Strain", "submissionValue": "BROWN NORWAY", "synonyms": ["BN"]}, {"conceptId": "C122234", "definition": "Developed by Dr. Carl Hansen at the NIH, this strain was derived from a cross between NIH Swiss and C57BL/6N mice. The Black Swiss mouse has genotype Tyrp1B, (a) and is homozygous for the rd1 mutation of the Pde6b gene. (NCI)", "preferredTerm": "Black Swiss Mouse", "submissionValue": "BS"}, {"conceptId": "C14396", "definition": "Derived from Buffalo stock of H. Morris to the NIH in 1950 and disseminated from Charles River since 1998, the Buffalo is a white albino rat, genotype c.", "preferredTerm": "BUF, Rat Strain", "submissionValue": "BUFFALO", "synonyms": ["BUF"]}, {"conceptId": "C37367", "definition": "Derived from the C3H progenitor strain that was passed to Heston in 1941. The C3H/He mouse has an agouti coat color, genotype +, rd and is wild type at the lps locus. (NCI)", "preferredTerm": "C3H/He Mouse", "submissionValue": "C3H/He"}, {"conceptId": "C37369", "definition": "Derived from the C3H progenitor strain that was passed to Heston in 1941 and to Jackson Lab in 1947. The C3H/HeJ mouse has an agouti coat color and genotype +, rd.", "preferredTerm": "C3H/HeJ Mouse", "submissionValue": "C3H/HeJ"}, {"conceptId": "C37376", "definition": "Derived by Little (1921) from A Lathrop stocks and separated out before 1937, the C57BL/10 mouse has a black coat and carries a Y chromosome of Asian Mus musculus origin and a LINE-1 element from Mus spretus. Substrain C57BL/10 differs from other substrains at multiple loci, including H9, Igh2 and Lv, on chromosome 4 and has a high incidence of spontaneous mutations.", "preferredTerm": "C57BL/10 Mouse", "submissionValue": "C57BL/10"}, {"conceptId": "C14424", "definition": "Derived by Little (1921) from A Lathrop stocks and separated out before 1937, the C57BL/6 mouse has a black coat and carries a Y chromosome of Asian Mus musculus origin and a LINE-1 element from Mus spretus. Substrain C57BL/6 differs from other substrains at multiple loci, including H9, Igh2 and Lv, on chromosome 4. This mouse model is prone to the development of fatty lesions in the aorta similar to atheromatous plaque in humans, as well as hyperglycemia, hyperinsulinemia, hypercholesterolemia and non-insulin-dependent diabetes mellitus in response to a high fat diet.", "preferredTerm": "C57BL/6 Mouse", "submissionValue": "C57BL/6"}, {"conceptId": "C76364", "definition": "One of the larger rabbit breeds, the Californian has a rounded, medium-length body with a short coat that is white with black on the nose, ears, feet, legs, and tail. This lagomorph also has pink eye color with genotype np.", "preferredTerm": "California Rabbit", "submissionValue": "CALIFORNIAN", "synonyms": ["California"]}, {"conceptId": "C123644", "definition": "A CB17 SCID mouse with an additional mutation on the Lyst gene which results in defective natural killer cells.", "preferredTerm": "Fox Chase SCID Beige Mouse", "submissionValue": "CB17 SCID BEIGE"}, {"conceptId": "C15158", "definition": "Discovered by Bosma (1980) at Fox Chase Cancer Center, the CB17 SCID mouse has an autosomal recessive mutation in the Prkdc gene which causes a severe combined immunodeficiency affecting B and T lymphocytes.", "preferredTerm": "Fox Chase SCID Mouse", "submissionValue": "CB17 SCID", "synonyms": ["Fox Chase SCID Mouse"]}, {"conceptId": "C98711", "definition": "A transgenic mouse at F1 generation with background strain C57BL/6 crossed with BALB/cAn, containing three copies of the human c-Ha-Ras gene introduced in tandem. (NCI)", "preferredTerm": "CB6F1-TgN (RasH2)", "submissionValue": "CB6F1-TgN (RasH2)", "synonyms": ["CByB6F1-Tg(HRAS)2Jic"]}, {"conceptId": "C37396", "definition": "The CBA mouse from Strong (1920) was disseminated to Jackson Laboratory and then onto Haldane and Gruneberg (1932) and finally onto Carter (1947). The CBA/Ca female mice have long life spans whilst males have short life spans. Both males and females have high ceruloplasmin levels.", "preferredTerm": "CBA/Ca Mouse", "submissionValue": "CBA/CA"}, {"conceptId": "C37399", "definition": "Developed by Strong (1920), the CBA/J mouse was disseminated to Andervont (1947) and then to Jackson Laboratory (1948). The CBA/J strain carries the gene for retinal degeneration (rd).", "preferredTerm": "CBA/J Mouse", "submissionValue": "CBA/J"}, {"conceptId": "C15152", "definition": "An inbred strain of athymic, nude mouse developed by transferring the Foxn1nu gene to a CD1 mouse. (NCI)", "preferredTerm": "CD-1 Nude Mouse", "submissionValue": "CD1 NU"}, {"conceptId": "C76183", "definition": "Derived from Rockefeller Swiss mice that were disseminated to the Institute of Cancer Research in Philadelphia (1948).", "preferredTerm": "ICR BR Mouse", "submissionValue": "CD1(ICR)", "synonyms": ["CD-1", "CD1", "CD1 (ICR) BR"]}, {"conceptId": "C77116", "definition": "Thought to be wild albino in origin, this strain was obtained by Carworth farms from a Missouri laboratory. It was intensely inbred by N. Goto in 1978 from a single Carworth pair, the progeny of which is used today. The CF-1 mouse has an albino coat with genotype c.", "preferredTerm": "CF-1 Mouse", "submissionValue": "CF1", "synonyms": ["CF-1"]}, {"conceptId": "C163741", "definition": "A grey-black rabbit with pigmented eyes derived from a cross between a chinchilla rabbit and New Zealand White rabbit.", "preferredTerm": "Chinchilla Bastard Rabbit", "submissionValue": "CHB", "synonyms": ["CHB Rabbit Strain", "Chinchilla Bastard Rabbit"]}, {"conceptId": "C163742", "definition": "A medium sized rabbit that is mostly white with colored points on the feet, ears, tail and muzzle. It has a double copy of the ch gene.", "preferredTerm": "Himalayan Chinchilla Bastard Rabbit", "submissionValue": "CHBB:HM", "synonyms": ["CHBB:HM Rabbit Strain", "Himalayan Chinchilla Bastard Rabbit", "Himalayan Rabbit"]}, {"conceptId": "C77092", "definition": "A hamster derived from a cross between a Chinese hamster and Syrian hamster.", "preferredTerm": "Chinese Syrian Hamster", "submissionValue": "CHINESE SYRIAN"}, {"conceptId": "C77091", "definition": "Originating in the deserts of northern China and Mongolia and kept in captivity since 1919, these hamsters exhibit a whitish/grey/brown coat color with a black stripe down the spine.", "preferredTerm": "Chinese Hamster", "submissionValue": "CHINESE", "synonyms": ["Chinese Hamster", "Cricetulus barabensis griseus"]}, {"conceptId": "C117981", "definition": "Derived from a cross between the commercial Cornish chicken and a White Plymouth Rock chicken, this breed grows rapidly and reaches 4-6 pounds in 6 weeks. (NCI)", "preferredTerm": "Cornish Cross Chicken", "submissionValue": "CORNISH CROSS"}, {"conceptId": "C77117", "definition": "The rat of the genus Sigmodon.", "preferredTerm": "Cotton Rat", "submissionValue": "COTTON"}, {"conceptId": "C14232", "definition": "The macaque, Macaca fascicularis.", "preferredTerm": "Cynomolgus Monkey", "submissionValue": "CYNOMOLGUS", "synonyms": ["Cynomolgus Macaque", "Macaca cynomolgus", "Macaca irus"]}, {"conceptId": "C76186", "definition": "Derived by Rapp from a colony of Sprague-Dawley rats that were initially derived by LK Dahl at Brookhaven National Laboratories. The SS rat strain has been selected for its acute salt sensitivity.", "preferredTerm": "SS, Rat Strain", "submissionValue": "DAHL-S", "synonyms": ["SS"]}, {"conceptId": "C122235", "definition": "The diabetic mutant mouse was derived from a spontaneous mutation in a C57BL/K progenitor mouse at the Jackson Laboratory in 1966. The db/db mouse is characterized by abnormal fat deposition at 3-4 weeks of age followed by hyperglycemia, glucosuria, polyuria and the development of lesions in the islets of Langerhans. (NCI)", "preferredTerm": "db/db Mouse", "submissionValue": "db/db"}, {"conceptId": "C14606", "definition": "Derived from crosses made by Little in 1929-1930 between DBA progenitors. The DBA/1 mouse has a q H2 haplotype and carries the Cdh23^ahl mutation that results in progressive hearing loss after 10 months of age. The DBA/1 and DBA/2 mice differ at loci Car2, Ce2, Hc, H2, If1, Lsh, Tla, and Qa3. The strain is commonly used as a model for rheumatoid arthritis as it mimics hallmarks of the human disease when immunized with type II collagen. (NCI)", "preferredTerm": "DBA/1 Mouse", "submissionValue": "DBA/1"}, {"conceptId": "C14604", "definition": "Derived from crosses made by Little in 1929-1930 between DBA progenitors. The DBA/2 mouse has a d H2 haplotype and carries the Cdh23ahl mutation that results in a progressive hearing loss beginning at 3-4 weeks of age and severe hearing loss after 3 months of age. Alleles GpnmbR150X and Tyrp1isa contribute to an eye phenotype that closely resembles human hereditary glaucoma. The DBA/2 mouse strain shows severe intolerance to alcohol and morphine and is naturally CD94 deficient. (NCI)", "preferredTerm": "DBA/2 Mouse", "submissionValue": "DBA/2"}, {"conceptId": "C77124", "definition": "A cat that is not purebred and has fur length that is characterized as short.", "preferredTerm": "Domestic Short Hair Cat", "submissionValue": "DOMESTIC SHORT HAIR", "synonyms": ["DSH"]}, {"conceptId": "C117982", "definition": "The name for a domesticated animal that does not have a pedigree nor belong to a specific breed. (NCI)", "preferredTerm": "Domestic Animal", "submissionValue": "DOMESTIC"}, {"conceptId": "C77088", "definition": "Albino outbred guinea pig belonging to the English (short-haired) breed. The Dunkin Hartley guinea pig has a white coat color (acromelanic albino) and red eyes and requires a nutritional source of vitamin C to sustain normal function.", "preferredTerm": "Dunkin Hartley Guinea Pig", "submissionValue": "DUNKIN-HARTLEY"}, {"conceptId": "C77101", "definition": "An older breed of American domestic pig, the Duroc breed is of medium length with a muscular, large-framed body. This pig breed is red-colored with partially drooping ears and is one of the most aggressive breeds of swine.", "preferredTerm": "Duroc Pig", "submissionValue": "DUROC-CROSS"}, {"conceptId": "C76365", "definition": "A smaller sized lagomorph, the Dutch belted rabbit has a characteristic belted appearance to the fur wherein the saddle, feet, and the front of the face are white while the rest of the body is colored. The Dutch belted rabbit is commonly utilized in biomedical research for toxicology studies, ophthalmological research, and developmental toxicity studies. This lagomorphs' small size lends itself to studies in which the study drug is available in smaller quantities or if housing space is a consideration.", "preferredTerm": "Dutch Belted Rabbit", "submissionValue": "DUTCH BELTED"}, {"conceptId": "C14401", "definition": "Derived by Curtiss and Dunning (1920) at Columbia University and disseminated to Heston (1949) and then to the NIH (1951). The Fischer 344 rat has an albino coat and genotype c.", "preferredTerm": "F344, Rat Strain", "submissionValue": "FISCHER 344", "synonyms": ["F344"]}, {"conceptId": "C14474", "definition": "NIH general purpose Swiss mice were selected for resistance or sensitivity to histamine challenge following pertussis vaccination. The sensitive strain, HFSF/N, was subsequently found to have the Fv1b allele, which sensitizes the mice to B strain Friend Leukemia virus. The FVB/N strain has an albino coat with genotype A,B,c,D,P, and has a vigorous reproductive performance.", "preferredTerm": "FVB/N Mouse", "submissionValue": "FVB/N"}, {"conceptId": "C98733", "definition": "A transgenic mouse with background strain FVB/N containing a mouse Hba-x promoter coupled to an Hras1 coding sequence with activating mutations at G12 (G12R) and A59 (A59T) followed by a SV40 polyadenylation signal. (NCI)", "preferredTerm": "FVB/NTac-Tg(Hba-x-v-Ha-ras)TG.ACLed", "submissionValue": "FVB/NTac-Tg(Hba-x-v-Ha-ras)TG.ACLed"}, {"conceptId": "C77102", "definition": "The smallest of the common miniature breeds, this breed is 10-14kg at sexual maturity with a shortened snout and rounded appearance. The Gottingen pig has white skin and hair. It is used in a variety of applications in biomedical research including cardiovascular studies, and its small size makes it an ideal animal model due to its relative ease of handling and smaller housing requirements. (NCI)", "preferredTerm": "Gottingen Pig", "submissionValue": "GOTTINGEN"}, {"conceptId": "C77103", "definition": "One of the oldest original early American pig strains, the Hampshire pig originated from the Old English breed and was imported to North American in the mid-1800s. The Hampshire pig has black skin and hair covering most of its body with a white portion of skin covering its front limbs and back. The Hampshire pig is one of the larger pig breeds used in biomedical research. (NCI)", "preferredTerm": "Hampshire Pig", "submissionValue": "HAMPSHIRE"}, {"conceptId": "C77104", "definition": "The largest of the miniature breeds, it reaches 25-40kg at sexual maturity. The Hanford pig is white with an elongated snout and has the largest heart and blood vessels of all pig breeds. It is used in biomedical research, among other things, in the testing of implantable devices in human cardiovascular research. (NCI)", "preferredTerm": "Hanford Pig", "submissionValue": "HANFORD"}, {"conceptId": "C77089", "definition": "Derived from inbred Hartley stocks at the Eastman Kodak Company and Montreal's Institute Armand Frappier, having undergone spontaneous mutation that led to hairlessness and athymicity. The mutation that spawned the Hartley Hairless Guinea Pig was then re-derived at Charles River to restore thymus function while maintaining hairlessness.", "preferredTerm": "Hartley Albino Hairless Guinea Pig", "submissionValue": "HARTLEY HAIRLESS", "synonyms": ["Hartley Albino Hairless"]}, {"conceptId": "C77090", "definition": "Albino outbred guinea pig belonging to the English (short-haired) breed. The Hartley guinea pig was imported from the Medical Research Council, Millhill, England, to Charles River in 1968 for propagation. The Hartley Guinea Pig has a white coat color (acromelanic albino) and red eyes and requires a nutritional source of vitamin C to sustain normal function.", "preferredTerm": "Hartley Guinea Pig", "submissionValue": "HARTLEY"}, {"conceptId": "C76366", "definition": "A white colored rabbit characterized by efficient superovulation and spontaneous formation of lymphoma. It is used as an animal model for Guillan-Barre syndrome in humans, toxicology, virology. (NCI)", "preferredTerm": "Japanese White Rabbit", "submissionValue": "JAPANESE WHITE"}, {"conceptId": "C77105", "definition": "Developed in Denmark by crossing native pigs with the Large White pig breed. The Landrace pig was imported into the UK in 1949 and disseminated worldwide beginning in the 1950s. This breed is characterized by white skin and the absence of black hair as well as lop ears and a long middle, light forequarter. The Landrace breed is susceptible to Porcine stress syndrome and malignant hyperthermia under anesthetic. This is one of the largest breeds in use in biomedical research. (NCI)", "preferredTerm": "Landrace Pig", "submissionValue": "LANDRACE-CROSS"}, {"conceptId": "C77098", "definition": "A small, commonly white-colored breed of poultry that is renowned for its ability to produce up to 300 chalk white eggs per year. The fully-grown leghorn chicken averages 3-6 pounds in weight and is characterized by being noisy, flighty, and easily excited. The leghorn has a lifespan of 5-11 years in the wild. In pre-clinical research, the leghorn is a consistent provider of eggs for embryonic, angiogenic, and vasculogenic research. (NCI)", "preferredTerm": "Leghorn Chicken", "submissionValue": "LEGHORNS"}, {"conceptId": "C106538", "definition": "Derived from Wistar stock by the laboratory of Dr. Lewis at the Wistar Institute in the 1940s and 1950s, the Lewis is a white albino rat with genotype a, TyrC. The Lewis rat has a MHC haplotype of RT1A'. (NCI)", "preferredTerm": "Lewis, Rat Strain", "submissionValue": "LEWIS", "synonyms": ["LEW"]}, {"conceptId": "C114342", "definition": "This rat comes from Lister stock at the Lister Institute in the 1920s, but the derivation origin is unknown. It has a white body coat color and black coat color over the head.", "preferredTerm": "LIS, Rat Strain", "submissionValue": "LISTER HOODED"}, {"conceptId": "C76188", "definition": "Derived by Long and Evans (1915) by crossing female Wistar rats with a wild gray male, the Long-Evans rat was disseminated to Charles River from Canadian Breeding Farm and Laboratories (1978). This outbred rat breed is white with a black or brown hood.", "preferredTerm": "LE, Rat Strain", "submissionValue": "LONG EVANS", "synonyms": ["LE"]}, {"conceptId": "C77115", "definition": "The common marmoset, Callithrix jacchus.", "preferredTerm": "Callithrix jacchus", "submissionValue": "MARMOSET", "synonyms": ["Callithrix jacchus jacchus", "White-Ear-Tufted Marmoset"]}, {"conceptId": "C91817", "definition": "A strain of Yucatan pig that weighs less than 55 kg when full grown. It was developed at Colorado State University in 1978 and is used extensively in biomedical research.", "preferredTerm": "Yucatan Micropig", "submissionValue": "MICRO YUCATAN MINIATURE SWINE", "synonyms": ["Yucatan Micropig"]}, {"conceptId": "C77106", "definition": "A Yucatan or other pig breed that is bred specifically for its small size. The micropig weighs between 14-20kg at sexual maturity. (NCI)", "preferredTerm": "Micropig", "submissionValue": "MICROPIG"}, {"conceptId": "C77107", "definition": "A Yucatan, Gottingen, or other pig breed that is bred specifically for its small size. The Minipig weighs between 20-30kg at sexual maturity. (NCI)", "preferredTerm": "Minipig", "submissionValue": "MINIPIG"}, {"conceptId": "C77100", "definition": "A rodent belonging to subfamily Gerbillinae, Meriones unguiculatus.", "preferredTerm": "Mongolian Gerbil", "submissionValue": "MONGOLIAN"}, {"conceptId": "C53951", "definition": "A dog that is not purebred.", "preferredTerm": "Mixed Breed", "submissionValue": "MONGREL"}, {"conceptId": "C114344", "definition": "One of the larger rabbit breeds, the New Zealand was derived by Don Johnson in 1916 by crossing unknown breeds. This rabbit weighs between 9-12 lbs. fully grown and may come in a variety of coat colors.", "preferredTerm": "New Zealand Rabbit", "submissionValue": "NEW ZEALAND"}, {"conceptId": "C106549", "definition": "An inbred strain of miniature swine developed by Sachs et al at the NIH in 1976 from a cross between a Hormel pig and a Vita Vet miniature pig. (NCI)", "preferredTerm": "NIH Minipig", "submissionValue": "NIH SLA MINIATURE SWINE", "synonyms": ["NIH Minipig"]}, {"conceptId": "C37416", "definition": "Derived from a Swiss type mouse that C. Lynch passed onto Poiley at NIH in 1937. This strain, then known as NIH/PI, was maintained as an inbred strain and was passed onto the Naval Medical Research Institute at F51. The NMRI mouse has a white coat color (albino) with genotype A/a, TyrC.", "preferredTerm": "NMRI Mouse", "submissionValue": "NMRI"}, {"conceptId": "C15167", "definition": "Originally derived by Prochazka et al (1992) at Jackson Laboratories, by crossing a C.B-17 congenic background mouse with the scid mutation to a diabetes-susceptible non-obese diabetic (NOD) mouse. This mouse is albino in color with coat genotype Tyrc.", "preferredTerm": "NOD.CB17-Prkdc-scid/J Mouse", "submissionValue": "NOD SCID", "synonyms": ["NOD.SCID"]}, {"conceptId": "C14239", "definition": "A hairless mutant mouse with thymic hypoplasia, lacking T-cells. They are unable to reject transplants. (NCI)", "preferredTerm": "Nude Mouse", "submissionValue": "NU"}, {"conceptId": "C122236", "definition": "The obese mutant mouse was derived from a spontaneous mutation in a V/Le progenitor mouse at the Jackson Laboratory in 1949. (NCI)", "preferredTerm": "ob/ob Mouse", "submissionValue": "ob/ob"}, {"conceptId": "C76187", "definition": "A hairless Sprague-Dawley rat from the Charles River affiliate IFFA Credo (Labresle, France). (NCI)", "preferredTerm": "OFA SD, Rat Strain", "submissionValue": "OFA(SD)"}, {"conceptId": "C14233", "definition": "A pale brown macaque, Macaca mulatta.", "preferredTerm": "Rhesus Monkey", "submissionValue": "RHESUS", "synonyms": ["Rhesus Macaque"]}, {"conceptId": "C122237", "definition": "An athymic, nude, outbred rat strain derived from crosses of 8 inbred rat strains at the laboratories of the NIH animal genetic resource in 1979-1980.", "preferredTerm": "RNU, Rat Strain", "submissionValue": "RNU"}, {"conceptId": "C77099", "definition": "A small white-colored broiler breed that averages 4-5.5 pounds when fully grown, with females averaging 120 eggs laid per year. Two substrains exist of Ross chickens; the Ross 308 and the Ross 708. The Ross 308 weighs between 3.8-5.5 pounds and is slightly smaller than the Ross 708 which can grow to be larger than 5.5 pounds. The Ross 708 is bred specifically for high meat yield and ease in deboning. (NCI)", "preferredTerm": "Ross Chicken", "submissionValue": "ROSS"}, {"conceptId": "C14412", "definition": "The spontaneous hypertensive rat was derived by Okamoto at the Kyoto school of medicine (1963) from a cross between an outbred Wistar Kyoto male with a significant elevation of blood pressure and a female Wistar Kyoto with elevated blood pressure. SHR rats develop hypertension spontaneously without exception at the age of 7-15 weeks with a systolic blood pressure plateau of about 200 mmHg. The genetic basis is polygenic, with at least three major genes involved (Tanase and Suzuki 1971, Yen et al 1974).", "preferredTerm": "SHR, Rat Strain", "submissionValue": "SHR"}, {"conceptId": "C91819", "definition": "A strain of pig developed by the Hormel Institute at the University of Minnesota in 1949, acquired by the University of Missouri in 1965 and now exclusively bred at the Sinclair Research Center. This strain of pig grows to be no larger than 70 kg and exhibits multiple coat colors and patterns. The Sinclair minipig is used in biomedical research for a variety of applications.", "preferredTerm": "Sinclair Minipig", "submissionValue": "SINCLAIR MINIATURE SWINE", "synonyms": ["Sinclair Miniature Swine", "Sinclair S-1 Minipig"]}, {"conceptId": "C98782", "definition": "An uncharacterized and non-pedigreed hairless albino mouse strain that is immunocompetent and euthymic. (NCI)", "preferredTerm": "SKH1-Hr hr", "submissionValue": "SKH1-Hr hr", "synonyms": ["SKH1"]}, {"conceptId": "C76189", "definition": "Derived from Wistar rats at Sprague-Dawley farms, this rat strain is characterized by a calm temperament which lends itself to ease of handling. This rat strain has the following anatomical features: absent gallbladder, a one-lobed left lung and a four-lobed right lung, the inability to vomit, and the production of dark colored eye secretions during periods of stress.", "preferredTerm": "SD, Rat Strain", "submissionValue": "SPRAGUE-DAWLEY", "synonyms": ["SD"]}, {"conceptId": "C160934", "definition": "A small diurnal primate with nails instead of claws belonging to the genus Saimiri.", "preferredTerm": "Saimiri", "submissionValue": "SQUIRREL", "synonyms": ["Squirrel Monkey"]}, {"conceptId": "C106572", "definition": "A strain of sheep originally derived in England in the 1880s from a cross between a Southdown ram and a Norfolk Horned ewe. The Suffolk sheep has a white-colored body, black face and legs, and has a wool type of medium. (NCI)", "preferredTerm": "Suffolk Sheep", "submissionValue": "SUFFOLK"}, {"conceptId": "C106573", "definition": "Derived from inbreeding of Swiss mice at the Rockefeller Institute in 1926 by Dr. Leslie Webster, the Swiss Webster is a white albino mouse with genotype TyrC. The superior nurturing ability of the Swiss Webster makes it ideal for embryo transfers. (NCI)", "preferredTerm": "Swiss Webster Mouse", "submissionValue": "SWISS WEBSTER", "synonyms": ["SW", "SWR"]}, {"conceptId": "C77095", "definition": "A captive hamster strain derived from a mother and eight pups that were captured in the wild in Aleppo, Syria by Dr. Israel Aharoni in 1930.", "preferredTerm": "Syrian Hamster", "submissionValue": "SYRIAN", "synonyms": ["Golden Hamster", "MESOCRICETUS AURATUS", "Syrian Hamster"]}, {"conceptId": "C14390", "definition": "A Wistar substrain derived by Furth (1945), this inbred rat strain is a white albino with pink eyes, genotype c. The Wistar Furth rat carries a heteropyenotic Y chromosome that is used as a cellular marker.", "preferredTerm": "WF, Rat Strain", "submissionValue": "WISTAR FURTH", "synonyms": ["WF"]}, {"conceptId": "C76191", "definition": "A Wistar substrain established in Hanover, Germany (1964), this rat breed is a white albino with pink eyes, genotype c.", "preferredTerm": "WH, Rat Strain", "submissionValue": "WISTAR HAN", "synonyms": ["WH"]}, {"conceptId": "C76192", "definition": "An outbred Wistar substrain derived at Kyoto school of medicine and disseminated to the NIH in 1971 and finally to Charles River in 1974. The Wistar Kyoto is a white albino with pink eyes, genotype c.", "preferredTerm": "WKY, Rat Strain", "submissionValue": "WISTAR KYOTO", "synonyms": ["WKY"]}, {"conceptId": "C76193", "definition": "A Wistar substrain that was disseminated to Glaxo Laboratory (UK) from the Wistar Institute in Philadelphia in 1933, then to the Dutch Institution for Nutrition (Amsterdam, The Netherlands) and maintained by Unilever Company (Vlaardingen, The Netherlands) from 1941. This strain is now disseminated by Harland Nederland. The Wistar Unilever rat is an albino, genotype c and pink eyes.", "preferredTerm": "Wistar Unilever, Rat Strain", "submissionValue": "WISTAR WU", "synonyms": ["WI(WU)"]}, {"conceptId": "C76190", "definition": "An outbred strain of albino brown rat, this strain was developed at the Wistar Institute by Donaldson, Greenman, and King (1906). The Wistar rat has a wide head, long ears, and its tail length is always less than its body length. A wide variety of rat inbred strains have been derived from the Wistar.", "preferredTerm": "WIST, Rat Strain", "submissionValue": "WISTAR", "synonyms": ["WIST"]}, {"conceptId": "C91818", "definition": "A strain of Yucatan pig that is found in the wild in Costa Rica and Mexico. It is a hairless, black or grey colored swine and weighs less than 70 kilograms at adulthood. It is used extensively in biomedical research.", "preferredTerm": "Yucatan Minipig", "submissionValue": "YUCATAN MINIATURE SWINE", "synonyms": ["Yucatan Minipig"]}, {"conceptId": "C77108", "definition": "Originating from Mexico and Central America, this breed has a straight back and no potbelly, short snout, sparse hair coat and medium size ears. The Yucatan pig is slate gray to black in color. Its uses in biomedical research are varied and include diabetes research, cardiovascular research, angiogenesis, and ophthalmological research among others. (NCI)", "preferredTerm": "Yucatan Pig", "submissionValue": "YUCATAN"}, {"conceptId": "C76194", "definition": "Derived from a spontaneous mutation in the leptin receptor that appeared in a 13M rat colony bred at the Zucker Laboratory of Comparative Pathology (Stow, MA), genotype leprfa.", "preferredTerm": "Z, Rat Strain", "submissionValue": "ZUCKER", "synonyms": ["ZUC-leprfa"]}]}