{"_links": {"parentPackage": {"href": "/mdr/ct/packages/sendct-2022-06-24", "title": "SEND Controlled Terminology Package 50 Effective 2022-06-24", "type": "Terminology"}, "priorVersion": {"href": "/mdr/ct/packages/sendct-2022-03-25/codelists/C89971", "title": "CDISC SEND Macroscopic Findings Test Name Terminology", "type": "Code List"}, "rootItem": {"href": "/mdr/root/ct/sendct/codelists/C89971", "title": "Version-agnostic anchor resource for codelist C89971", "type": "Root Value Domain"}, "self": {"href": "/mdr/ct/packages/sendct-2022-06-24/codelists/C89971", "title": "CDISC SEND Macroscopic Findings Test Name Terminology", "type": "Code List"}}, "conceptId": "C89971", "definition": "Terminology for the test names concerned with the findings from a specimen that are visible to the naked eye.", "extensible": "true", "name": "Macroscopic Findings Test Name", "preferredTerm": "CDISC SEND Macroscopic Findings Test Name Terminology", "submissionValue": "MATEST", "synonyms": ["Macroscopic Findings Test Name"], "terms": [{"conceptId": "C16033", "definition": "The process by which information about the health status of a subject is obtained after the subject is no longer receiving study medication.", "preferredTerm": "Follow-Up", "submissionValue": "Clinical Signs Follow-up", "synonyms": ["Clinical Signs Follow-up"]}, {"conceptId": "C90390", "definition": "An assessment of macroscopic pathological findings.", "preferredTerm": "Gross Pathologic Examination", "submissionValue": "Gross Pathological Examination", "synonyms": ["Gross Pathological Examination"]}]}