{"_links": {"parentPackage": {"href": "/mdr/ct/packages/sendct-2022-06-24", "title": "SEND Controlled Terminology Package 50 Effective 2022-06-24", "type": "Terminology"}, "priorVersion": {"href": "/mdr/ct/packages/sendct-2022-03-25/codelists/C89963", "title": "CDISC SEND Category for Clinical Observation Terminology", "type": "Code List"}, "rootItem": {"href": "/mdr/root/ct/sendct/codelists/C89963", "title": "Version-agnostic anchor resource for codelist C89963", "type": "Root Value Domain"}, "self": {"href": "/mdr/ct/packages/sendct-2022-06-24/codelists/C89963", "title": "CDISC SEND Category for Clinical Observation Terminology", "type": "Code List"}}, "conceptId": "C89963", "definition": "Terminology related to classifications that describe and group clinical observations.", "extensible": "true", "name": "Category for Clinical Observation", "preferredTerm": "CDISC SEND Category for Clinical Observation Terminology", "submissionValue": "CLCAT", "synonyms": ["Category for Clinical Observation"], "terms": [{"conceptId": "C166103", "definition": "An observation made on the contents of the housing environment (e.g., presence of blood, fecal abnormality), excluding observations made on the animal(s).", "preferredTerm": "Cage Observation", "submissionValue": "CAGE OBSERVATION"}, {"conceptId": "C100104", "definition": "Objective evidence of disease perceptible to the examiner (sign) and subjective evidence of disease perceived by the subject (symptom).", "preferredTerm": "Sign or Symptom", "submissionValue": "CLINICAL SIGNS", "synonyms": ["Clinical Signs"]}, {"conceptId": "C25478", "definition": "Of or relating to or located in the dermis. When used in the context of clinical observations, dermal may also include findings related to other components of the skin.", "preferredTerm": "Dermal", "submissionValue": "DERMAL", "synonyms": ["Dermal"]}, {"conceptId": "C16939", "definition": "A medical specialty concerned with the structure and function of the eye and the medical and surgical treatment of its defects and diseases. (NCI)", "preferredTerm": "Ophthalmology", "submissionValue": "OPHTHALMOLOGY", "synonyms": ["Ophthalmology"]}, {"conceptId": "C20989", "definition": "A systemic evaluation of the body and its functions using visual inspection, palpation, percussion and auscultation.", "preferredTerm": "Physical Examination", "submissionValue": "PHYSICAL EXAM", "synonyms": ["Physical Exam"]}, {"conceptId": "C129003", "definition": "A qualitative or semi-quantitative measurement of a subject's nutritional intake.", "preferredTerm": "Qualitative Food Consumption", "submissionValue": "QUALITATIVE FOOD CONSUMPTION"}]}