{"_links": {"parentPackage": {"href": "/mdr/ct/packages/sendct-2022-03-25", "title": "SEND Controlled Terminology Package 49 Effective 2022-03-25", "type": "Terminology"}, "priorVersion": {"href": "/mdr/ct/packages/sendct-2021-12-17/codelists/C120532", "title": "CDISC SEND Cardiovascular Test Code Terminology", "type": "Code List"}, "rootItem": {"href": "/mdr/root/ct/sendct/codelists/C120532", "title": "Version-agnostic anchor resource for codelist C120532", "type": "Root Value Domain"}, "self": {"href": "/mdr/ct/packages/sendct-2022-03-25/codelists/C120532", "title": "CDISC SEND Cardiovascular Test Code Terminology", "type": "Code List"}}, "conceptId": "C120532", "definition": "Terminology related to the non-clinical cardiovascular test code codelist.", "extensible": "true", "name": "SEND Cardiovascular Test Code", "preferredTerm": "CDISC SEND Cardiovascular Test Code Terminology", "submissionValue": "SCVTSTCD", "synonyms": ["SEND Cardiovascular Test Code"], "terms": [{"conceptId": "C120914", "definition": "A measurement of a subject's physical activity or movement.", "preferredTerm": "Physical Activity Measurement", "submissionValue": "ACTIVITY", "synonyms": ["Activity"]}, {"conceptId": "C186258", "definition": "A relative measurement (ratio) of the maximum rate of pressure rise (dP/dt maximum) to maximum isovolumetric pressure.", "preferredTerm": "Contractility Index", "submissionValue": "CI", "synonyms": ["Contractility Index"]}, {"conceptId": "C168125", "definition": "The amount of time it takes for a capillary bed to refill with blood after pressure blanching.", "preferredTerm": "Capillary Refill Test", "submissionValue": "CPLRFLT", "synonyms": ["Capillary Refill Time"]}, {"conceptId": "C25299", "definition": "The minimum blood pressure in the systemic arterial circulation during the cardiac cycle.", "preferredTerm": "Diastolic Blood Pressure", "submissionValue": "DIABP", "synonyms": ["Diastolic Blood Pressure"]}, {"conceptId": "C186259", "definition": "The maximum rate of positive pressure change over time within the left ventricle (systole) at 40mmHg.", "preferredTerm": "Left Ventricular Positive dP/dt at 40mmHg", "submissionValue": "DPDT40", "synonyms": ["Left Ventricular Positive dP/dt 40mmHg", "Left Ventricular Positive dP/dt at 40mmHg", "Positive dP/dt at 40mmHg", "Positive dP/dt Derivative at 40mmHg"]}, {"conceptId": "C120915", "definition": "The average rate of pressure change over time within the left ventricle (systole).", "preferredTerm": "dP/dt Average", "submissionValue": "DPDTAVG", "synonyms": ["dP/dt Average"]}, {"conceptId": "C120916", "definition": "The maximum rate of positive pressure change over time within the left ventricle (systole).", "preferredTerm": "Left Ventricular Maximum Positive dP/dt", "submissionValue": "DPDTMAX", "synonyms": ["dPdt Maximum", "+dPdt", "Left Ventricular Maximum Positive dP/dt"]}, {"conceptId": "C120917", "definition": "The minimum rate of positive pressure change over time within the left ventricle (systole).", "preferredTerm": "Left Ventricular Minimum Positive dP/dt", "submissionValue": "DPDTMIN", "synonyms": ["-dP/dt", "Left Ventricular Maximum Negative dP/dt", "Left Ventricular Minimum Positive dP/dt"]}, {"conceptId": "C49677", "definition": "The number of heartbeats per unit of time, usually expressed as beats per minute. (NCI)", "preferredTerm": "Heart Rate", "submissionValue": "HR", "synonyms": ["Heart Rate"]}, {"conceptId": "C120919", "definition": "The pressure within the left ventricle of the heart at the end of the period when the chambers of the heart refill with blood and just before the contraction begins.", "preferredTerm": "Left Ventricular End Diastolic Pressure", "submissionValue": "LVEDP", "synonyms": ["Left Ventricular End Diastolic Pressure"]}, {"conceptId": "C120920", "definition": "The pressure within the left ventricle of the heart during the contraction of the left ventricle of the heart.", "preferredTerm": "Left Ventricular Systolic Pressure", "submissionValue": "LVSYSBP", "synonyms": ["Left Ventricular Systolic Pressure"]}, {"conceptId": "C49679", "definition": "The mean pressure of the blood within the arterial circulation.", "preferredTerm": "Mean Arterial Pressure", "submissionValue": "MAP", "synonyms": ["Mean Arterial Pressure"]}, {"conceptId": "C121185", "definition": "The positive pressure that correlates with the maximum dP/dt, the rate of change in pressure over time.", "preferredTerm": "Pressure at dP/dt Maximum", "submissionValue": "PDPDTMAX", "synonyms": ["Left Ventricular Pressure Maximum", "Pressure at dP/dt Maximum"]}, {"conceptId": "C121186", "definition": "The positive pressure that correlates with the minimum dP/dt, the rate of change in pressure over time.", "preferredTerm": "Pressure at dP/dt Minimum", "submissionValue": "PDPDTMIN", "synonyms": ["Left Ventricular Pressure Minimum", "Pressure at dP/dt Minimum"]}, {"conceptId": "C100945", "definition": "The change in systolic to diastolic pressure which produces a pulse.", "preferredTerm": "Pulse Pressure", "submissionValue": "PULSEPR", "synonyms": ["Pulse Pressure"]}, {"conceptId": "C120921", "definition": "The maximum time interval between the Q wave on an ECG and the onset of the aortic blood pressure pulse.", "preferredTerm": "Maximum QA Interval", "submissionValue": "QAMAX", "synonyms": ["Summary (Max) QA Interval"]}, {"conceptId": "C120922", "definition": "The mean time interval between the Q wave on an ECG and the onset of the aortic blood pressure pulse.", "preferredTerm": "Mean QA Interval", "submissionValue": "QAMEAN", "synonyms": ["Summary (Mean) QA Interval"]}, {"conceptId": "C120923", "definition": "The median time interval between the Q wave on an ECG and the onset of the aortic blood pressure pulse.", "preferredTerm": "Median QA Interval", "submissionValue": "QAMEDIAN", "synonyms": ["Summary (Median) QA Interval"]}, {"conceptId": "C120924", "definition": "The minimum time interval between the Q wave on an ECG and the onset of the aortic blood pressure pulse.", "preferredTerm": "Minimum QA Interval", "submissionValue": "QAMIN", "synonyms": ["Summary (Min) QA Interval"]}, {"conceptId": "C25298", "definition": "The maximum blood pressure in the systemic arterial circulation during the cardiac cycle.", "preferredTerm": "Systolic Blood Pressure", "submissionValue": "SYSBP", "synonyms": ["Systolic Blood Pressure"]}, {"conceptId": "C119248", "definition": "The resistance to blood flow through the systemic vasculature.", "preferredTerm": "Systemic Vascular Resistance", "submissionValue": "TPR", "synonyms": ["Systemic Vascular Resistance", "Total Peripheral Resistance"]}]}