{"_links": {"parentPackage": {"href": "/mdr/ct/packages/sendct-2022-03-25", "title": "SEND Controlled Terminology Package 49 Effective 2022-03-25", "type": "Terminology"}, "priorVersion": {"href": "/mdr/ct/packages/sendct-2021-12-17/codelists/C124314", "title": "CDISC SEND Fetal Pathology Findings Test Code Terminology", "type": "Code List"}, "rootItem": {"href": "/mdr/root/ct/sendct/codelists/C124314", "title": "Version-agnostic anchor resource for codelist C124314", "type": "Root Value Domain"}, "self": {"href": "/mdr/ct/packages/sendct-2022-03-25/codelists/C124314", "title": "CDISC SEND Fetal Pathology Findings Test Code Terminology", "type": "Code List"}}, "conceptId": "C124314", "definition": "Terminology for the test codes relevant to fetal pathology findings.", "extensible": "true", "name": "Fetal Pathology Findings Test Code", "preferredTerm": "CDISC SEND Fetal Pathology Findings Test Code Terminology", "submissionValue": "FXTESTCD", "synonyms": ["Fetal Pathology Findings Test Code"], "terms": [{"conceptId": "C124596", "definition": "An assessment of the outer body structures.", "preferredTerm": "External Examination", "submissionValue": "EXTREXAM", "synonyms": ["External Examination"]}, {"conceptId": "C124597", "definition": "An assessment of the shared maternal and fetal tissues including amniotic fluid, umbilical cord and placenta.", "preferredTerm": "Maternal-Fetal Examination", "submissionValue": "MTFTEXAM", "synonyms": ["Maternal-Fetal Examination"]}, {"conceptId": "C124598", "definition": "An assessment of the bone and cartilage structures.", "preferredTerm": "Skeletal Examination", "submissionValue": "SKELEXAM", "synonyms": ["Skeletal Examination"]}, {"conceptId": "C124599", "definition": "An assessment of the internal soft tissue structures.", "preferredTerm": "Visceral Examination", "submissionValue": "VISCEXAM", "synonyms": ["Visceral Examination"]}]}