{"_links": {"parentPackage": {"href": "/mdr/ct/packages/sendct-2022-03-25", "title": "SEND Controlled Terminology Package 49 Effective 2022-03-25", "type": "Terminology"}, "priorVersion": {"href": "/mdr/ct/packages/sendct-2021-12-17/codelists/C128683", "title": "CDISC SDTM PK Unit of Measure Kilogram Weight Terminology", "type": "Code List"}, "rootItem": {"href": "/mdr/root/ct/sendct/codelists/C128683", "title": "Version-agnostic anchor resource for codelist C128683", "type": "Root Value Domain"}, "self": {"href": "/mdr/ct/packages/sendct-2022-03-25/codelists/C128683", "title": "CDISC SDTM PK Unit of Measure Kilogram Weight Terminology", "type": "Code List"}}, "conceptId": "C128683", "definition": "Units of measure for pharmacokinetic parameters normalized by weight in kilograms.", "extensible": "true", "name": "PK Units of Measure - Weight kg", "preferredTerm": "CDISC SDTM PK Unit of Measure Kilogram Weight Terminology", "submissionValue": "PKUWKG", "synonyms": ["PK Units of Measure - Weight kg"], "terms": [{"conceptId": "C73755", "definition": "Milliliters per gram per day or liters per day (flow rate), divided by kilograms (weight) or milliliters per day (flow rate), divided by grams (weight).", "preferredTerm": "Milliliter per Gram per Day", "submissionValue": "(L/day)/kg", "synonyms": ["(L/day)/kg", "(mL/day)/g", "mL/g/day"]}, {"conceptId": "C73756", "definition": "Milliliters per gram per hour or liters per hour (flow rate), divided by kilograms (weight) or milliliters per hour (flow rate), divided by grams (weight).", "preferredTerm": "Milliliter per Gram per Hour", "submissionValue": "(L/h)/kg", "synonyms": ["(L/h)/kg", "(mL/h)/g", "mL/g/h"]}, {"conceptId": "C73757", "definition": "Milliliters per gram per minute or liters per minute (flow rate), divided by kilograms (weight) or milliliters per minute (flow rate), divided by grams (weight).", "preferredTerm": "Milliliter per Gram per Minute", "submissionValue": "(L/min)/kg", "synonyms": ["(L/min)/kg", "(mL/min)/g", "mL/g/min"]}, {"conceptId": "C73758", "definition": "Milliliters per kilogram per day or milliliters per day (flow rate), divided by kilograms (weight).", "preferredTerm": "Milliliter per Kilogram per Day", "submissionValue": "(mL/day)/kg", "synonyms": ["(mL/day)/kg", "mL/kg/day"]}, {"conceptId": "C73759", "definition": "Milliliters per kilogram per hour or milliliters per hour (flow rate), divided by kilograms (weight).", "preferredTerm": "Milliliter per Kilogram per Hour", "submissionValue": "(mL/h)/kg", "synonyms": ["(mL/h)/kg", "mL/kg/h"]}, {"conceptId": "C73760", "definition": "Milliliters per kilogram per minute or milliliters per minute (flow rate), divided by kilograms (weight).", "preferredTerm": "Milliliter per Kilogram per Minute", "submissionValue": "(mL/min)/kg", "synonyms": ["(mL/min)/kg", "mL/kg/min"]}, {"conceptId": "C112247", "definition": "Days times grams per milliliter (area under the curve), divided by kilograms (weight); or days times milligrams per milliliter (area under the curve), divided by grams (weight); or days times micrograms per milliliter (area under the curve), divided by milligrams (dose); or days times nanograms per milliliter (area under the curve), divided by micrograms (dose).", "preferredTerm": "Day Times Gram Per Milliliter Per Kilogram", "submissionValue": "day*g/mL/kg", "synonyms": ["day*g/mL/kg", "day*mg/mL/g", "day*ng/mL/ug", "day*ug/mL/mg"]}, {"conceptId": "C112248", "definition": "Days times milligrams per milliliter (area under the curve), divided by kilograms (weight) or days times micrograms per milliliter (area under the curve), divided by grams (weight).", "preferredTerm": "Day Times Microgram Per Milliliter Per Gram", "submissionValue": "day*mg/mL/kg", "synonyms": ["day*mg/mL/kg", "day*ug/mL/g"]}, {"conceptId": "C112250", "definition": "Days times millimoles per liter (area under the curve), divided by kilograms (weight) or days times micromoles per liter (area under the curve), divided by grams (weight).", "preferredTerm": "Day Times Micromole Per Liter Per Gram", "submissionValue": "day*mmol/L/kg", "synonyms": ["day*mmol/L/kg", "day*umol/L/g"]}, {"conceptId": "C112254", "definition": "Days times moles per liter (area under the curve), divided by kilograms (weight) or days times millimoles per liter (area under the curve), divided by grams (weight).", "preferredTerm": "Day Times Millimole Per Liter Per Gram", "submissionValue": "day*mol/L/kg", "synonyms": ["day*mmol/L/g", "day*mol/L/kg"]}, {"conceptId": "C112259", "definition": "Days times nanograms per milliliter (area under the curve), divided by kilograms (weight) or days times picograms per milliliter (area under the curve), divided by grams (weight).", "preferredTerm": "Day Times Nanogram Per Milliliter Per Kilogram", "submissionValue": "day*ng/mL/kg", "synonyms": ["day*ng/mL/kg", "day*pg/mL/g"]}, {"conceptId": "C112261", "definition": "Days times nanomoles per liter (area under the curve), divided by kilograms (weight) or days times picomoles per liter (area under the curve), divided by grams (weight).", "preferredTerm": "Day Times Nanomole Per Liter Per Kilogram", "submissionValue": "day*nmol/L/kg", "synonyms": ["day*nmol/L/kg", "day*pmol/L/g"]}, {"conceptId": "C112244", "definition": "Days times picograms per milliliter (area under the curve), divided by kilograms (weight) or days times femtograms per milliliter (area under the curve), divided by grams (weight).", "preferredTerm": "Day Times Femtogram Per Milliliter Per Gram", "submissionValue": "day*pg/mL/kg", "synonyms": ["day*fg/mL/g", "day*pg/mL/kg"]}, {"conceptId": "C112265", "definition": "Days times picomoles per liter (area under the curve), divided by kilograms (weight).", "preferredTerm": "Day Times Picomole Per Liter Per Kilogram", "submissionValue": "day*pmol/L/kg"}, {"conceptId": "C112249", "definition": "Days times micrograms per milliliter (area under the curve), divided by kilograms (weight) or days times nanograms per milliliter (area under the curve), divided by grams (weight).", "preferredTerm": "Day Times Microgram Per Milliliter Per Kilogram", "submissionValue": "day*ug/mL/kg", "synonyms": ["day*ng/mL/g", "day*ug/mL/kg"]}, {"conceptId": "C112251", "definition": "Days times micromoles per liter (area under the curve), divided by kilograms (weight) or days times nanomoles per liter (area under the curve), divided by grams (weight).", "preferredTerm": "Day Times Micromole Per Liter Per Kilogram", "submissionValue": "day*umol/L/kg", "synonyms": ["day*nmol/L/g", "day*umol/L/kg"]}, {"conceptId": "C119348", "definition": "Femtograms per milliliter (concentration), divided by kilograms (weight).", "preferredTerm": "Femtogram per Milliliter per Kilogram", "submissionValue": "fg/mL/kg"}, {"conceptId": "C85710", "definition": "Grams per milliliter (concentration), divided by kilograms (weight) or milligrams per milliliter (concentration), divided by grams (weight) or micrograms per milliliter (concentration), divided by milligrams (dose) or nanograms per milliliter (concentration), divided by micrograms (dose).", "preferredTerm": "Milligram per Liter per Milligram", "submissionValue": "g/mL/kg", "synonyms": ["g/mL/kg", "mg/mL/g", "ng/mL/ug", "ug/mL/mg"]}, {"conceptId": "C85617", "definition": "Hours times grams per milliliter (area under the curve), divided by kilograms (weight) or hours times milligrams per milliliter (area under the curve), divided by grams (weight) or hours times micrograms per milliliter (area under the curve), divided by milligrams (dose).", "preferredTerm": "Hour Times Microgram per Milliliter per Milligram", "submissionValue": "h*g/mL/kg", "synonyms": ["h*g/mL/kg", "h*mg/mL/g", "h*ug/mL/mg"]}, {"conceptId": "C85627", "definition": "Hours times milligrams per milliliter (area under the curve), divided by kilograms (weight) or hours times micrograms per milliliter (area under the curve), divided by grams (weight) or hours times nanograms per milliliter (area under the curve), divided by milligrams (dose).", "preferredTerm": "Hour Times Nanogram per Milliliter per Milligram", "submissionValue": "h*mg/mL/kg", "synonyms": ["h*mg/mL/kg", "h*ng/mL/mg", "h*ug/mL/g"]}, {"conceptId": "C112307", "definition": "Hours times millimoles per liter (area under the curve), divided by kilograms (weight); or hours times micromoles per liter (area under the curve), divided by grams (weight); or hours times nanomoles per liter (area under the curve), divided by milligrams (dose); or hours times picomoles per liter (area under the curve), divided by micrograms (dose).", "preferredTerm": "Hour Times Millimole Per Liter Per Kilogram", "submissionValue": "h*mmol/L/kg", "synonyms": ["h*mmol/L/kg", "h*nmol/L/mg", "h*pmol/L/ug", "h*umol/L/g"]}, {"conceptId": "C106530", "definition": "Hours times moles per liter (area under the curve), divided by kilograms (weight) or hours times millimoles per liter (area under the curve), divided by grams (weight).", "preferredTerm": "Hour times Millimole Per Liter Per Gram", "submissionValue": "h*mol/L/kg", "synonyms": ["h*mmol/L/g", "h*mol/L/kg"]}, {"conceptId": "C85626", "definition": "Hours times nanograms per milliliter (area under the curve), divided by kilograms (weight) or hours times picograms per milliliter (area under the curve), divided by grams (weight).", "preferredTerm": "Hour Times Nanogram per Milliliter per Kilogram", "submissionValue": "h*ng/mL/kg", "synonyms": ["h*ng/mL/kg", "h*pg/mL/g"]}, {"conceptId": "C106532", "definition": "Hours times nanomoles per liter (area under the curve), divided by kilograms (weight) or hours times picomoles per liter (area under the curve), divided by grams (weight).", "preferredTerm": "Hour times Picomole Per Liter Per Gram", "submissionValue": "h*nmol/L/kg", "synonyms": ["h*nmol/L/kg", "h*pmol/L/g"]}, {"conceptId": "C85636", "definition": "Hours times picograms per milliliter (area under the curve), divided by kilograms (weight) or hours times femtograms per milliliter (area under the curve), divided by grams (weight).", "preferredTerm": "Hour Times Picogram per Milliliter per Kilogram", "submissionValue": "h*pg/mL/kg", "synonyms": ["h*fg/mL/g", "h*pg/mL/kg"]}, {"conceptId": "C112311", "definition": "Hours times picomoles per liter (area under the curve), divided by kilograms (weight).", "preferredTerm": "Hour Times Picomole Per Liter Per Kilogram", "submissionValue": "h*pmol/L/kg"}, {"conceptId": "C85625", "definition": "Hours times micrograms per milliliter (area under the curve), divided by kilograms (weight) or hours times nanograms per milliliter (area under the curve), divided by grams (weight) or hours times picograms per milliliter (area under the curve), divided by milligrams (dose).", "preferredTerm": "Hour Times Nanogram per Milliliter per Gram", "submissionValue": "h*ug/mL/kg", "synonyms": ["h*ng/mL/g", "h*pg/mL/mg", "h*ug/mL/kg"]}, {"conceptId": "C112304", "definition": "Hours times micromoles per liter (area under the curve), divided by kilograms (weight) or hours times nanomoles per liter (area under the curve), divided by grams (weight).", "preferredTerm": "Hour Times Micromole Per Liter Per Kilogram", "submissionValue": "h*umol/L/kg", "synonyms": ["h*nmol/L/g", "h*umol/L/kg"]}, {"conceptId": "C119378", "definition": "International units per milliliter (concentration), divided by kilograms (weight) or milli-international units per milliliter (concentration), divided by grams (weight) or micro-international units per milliliter (concentration), divided by milligrams (dose).", "preferredTerm": "International Unit per Milliliter per Kilogram", "submissionValue": "IU/mL/kg", "synonyms": ["IU/mL/kg", "mIU/mL/g", "uIU/mL/mg"]}, {"conceptId": "C73725", "definition": "Liters (volume) divided by kilograms (weight) or milliliters (volume), divided by grams (weight).", "preferredTerm": "Liter per Kilogram", "submissionValue": "L/kg", "synonyms": ["L/kg", "mL/g"]}, {"conceptId": "C85747", "definition": "Milligrams per milliliter (concentration), divided by kilograms (weight) or micrograms per milliliter (concentration), divided by grams (weight) or nanograms per milliliter (concentration), divided by milligrams (dose) or picograms per milliliter (concentration), divided by micrograms (dose).", "preferredTerm": "Nanogram per Milliliter per Milligram", "submissionValue": "mg/mL/kg", "synonyms": ["mg/mL/kg", "ng/mL/mg", "pg/mL/ug", "ug/mL/g"]}, {"conceptId": "C112337", "definition": "Minutes times grams per milliliter (area under the curve), divided by kilograms (weight) or minutes times milligrams per milliliter (area under the curve), divided by grams (weight).", "preferredTerm": "Minute Times Gram Per Milliliter Per Kilogram", "submissionValue": "min*g/mL/kg", "synonyms": ["min*g/mL/kg", "min*mg/mL/g"]}, {"conceptId": "C112338", "definition": "Minutes times milligrams per milliliter (area under the curve), divided by kilograms (weight) or minutes times micrograms per milliliter (area under the curve), divided by grams (weight).", "preferredTerm": "Minute Times Microgram Per Milliliter Per Gram", "submissionValue": "min*mg/mL/kg", "synonyms": ["min*mg/mL/kg", "min*ug/mL/g"]}, {"conceptId": "C112340", "definition": "Minutes times millimoles per liter (area under the curve), divided by kilograms (weight) or minutes times micromoles per liter (area under the curve), divided by grams (weight).", "preferredTerm": "Minute Times Micromole Per Liter Per Gram", "submissionValue": "min*mmol/L/kg", "synonyms": ["min*mmol/L/kg", "min*umol/L/g"]}, {"conceptId": "C112344", "definition": "Minutes times moles per liter (area under the curve), divided by kilograms (weight) or minutes times millimoles per liter (area under the curve), divided by grams (weight).", "preferredTerm": "Minute Times Millimole Per Liter Per Gram", "submissionValue": "min*mol/L/kg", "synonyms": ["min*mmol/L/g", "min*mol/L/kg"]}, {"conceptId": "C112349", "definition": "Minutes times nanograms per milliliter (area under the curve), divided by kilograms (weight) or minutes times picograms per milliliter (area under the curve), divided by grams (weight).", "preferredTerm": "Minute Times Nanogram Per Milliliter Per Kilogram", "submissionValue": "min*ng/mL/kg", "synonyms": ["min*ng/mL/kg", "min*pg/mL/g"]}, {"conceptId": "C112351", "definition": "Minutes times nanomoles per liter (area under the curve), divided by kilograms (weight) or minutes times picomoles per liter (area under the curve), divided by grams (weight).", "preferredTerm": "Minute Times Nanomole Per Liter Per Kilogram", "submissionValue": "min*nmol/L/kg", "synonyms": ["min*nmol/L/kg", "min*pmol/L/g"]}, {"conceptId": "C112334", "definition": "Minutes times picograms per milliliter (area under the curve), divided by kilograms (weight) or minutes times femtograms per milliliter (area under the curve), divided by grams (weight).", "preferredTerm": "Minute Times Femtogram Per Milliliter Per Gram", "submissionValue": "min*pg/mL/kg", "synonyms": ["min*fg/mL/g", "min*pg/mL/kg"]}, {"conceptId": "C112355", "definition": "Minutes times picomoles per liter (area under the curve), divided by kilograms (weight).", "preferredTerm": "Minute Times Picomole Per Liter Per Kilogram", "submissionValue": "min*pmol/L/kg"}, {"conceptId": "C112339", "definition": "Minutes times micrograms per milliliter (area under the curve), divided by kilograms (weight) or minutes times nanograms per milliliter (area under the curve), divided by grams (weight).", "preferredTerm": "Minute Times Microgram Per Milliliter Per Kilogram", "submissionValue": "min*ug/mL/kg", "synonyms": ["min*ng/mL/g", "min*ug/mL/kg"]}, {"conceptId": "C112341", "definition": "Minutes times micromoles per liter (area under the curve), divided by kilograms (weight) or minutes times nanomoles per liter (area under the curve), divided by grams (weight).", "preferredTerm": "Minute Times Micromole Per Liter Per Kilogram", "submissionValue": "min*umol/L/kg", "synonyms": ["min*nmol/L/g", "min*umol/L/kg"]}, {"conceptId": "C119408", "definition": "Milli-international units per milliliter (concentration), divided by kilograms (weight) or micro-international units per milliliter (concentration), divided by grams (weight).", "preferredTerm": "Milli-International Unit per Milliliter per Kilogram", "submissionValue": "mIU/mL/kg", "synonyms": ["mIU/mL/kg", "uIU/mL/g"]}, {"conceptId": "C67411", "definition": "Milliliters (volume) divided by kilograms (weight).", "preferredTerm": "Milliliter per Kilogram", "submissionValue": "mL/kg"}, {"conceptId": "C85784", "definition": "Millimoles per liter (concentration), divided by kilograms (weight) or micromoles per liter (concentration), divided by grams (weight) or nanomoles per liter (concentration), divided by milligrams (dose) or picomoles per liter (concentration), divided by micrograms (dose).", "preferredTerm": "Picomole per Liter per Microgram", "submissionValue": "mmol/L/kg", "synonyms": ["mmol/L/kg", "nmol/L/mg", "pmol/L/ug", "umol/L/g"]}, {"conceptId": "C119423", "definition": "Moles per liter (concentration), divided by kilograms (weight) or millimoles per liter (concentration), divided by grams (weight) or micromoles per liter (concentration), divided by milligrams (dose) or nanomoles per liter (concentration), divided by micrograms (dose).", "preferredTerm": "Millimole per Liter per Gram", "submissionValue": "mol/L/kg", "synonyms": ["mmol/L/g", "mol/L/kg", "nmol/L/ug", "umol/L/mg"]}, {"conceptId": "C85743", "definition": "Nanograms per kilogram per minute.", "preferredTerm": "Nanogram per Kilogram per Minute", "submissionValue": "ng/kg/min"}, {"conceptId": "C85746", "definition": "Nanograms per milliliter (concentration), divided by kilograms (weight) or picograms per milliliter (concentration), divided by grams (weight) or femtograms per milliliter (concentration), divided by milligrams (dose).", "preferredTerm": "Nanogram per Milliliter per Kilogram", "submissionValue": "ng/mL/kg", "synonyms": ["fg/mL/mg", "ng/mL/kg", "pg/mL/g"]}, {"conceptId": "C85754", "definition": "Nanomoles (amount), divided by kilograms (weight) or picomoles per gram.", "preferredTerm": "Nanomole per Kilogram", "submissionValue": "nmol/kg", "synonyms": ["nmol/kg", "pmol/g"]}, {"conceptId": "C119468", "definition": "Nanomoles per liter (concentration), divided by kilograms (weight) or picomoles per liter (concentration), divided by grams (weight).", "preferredTerm": "Nanomole per Liter per Kilogram", "submissionValue": "nmol/L/kg", "synonyms": ["nmol/L/kg", "pmol/L/g"]}, {"conceptId": "C119347", "definition": "Picograms per milliliter (concentration), divided by kilograms (weight) or femtograms per milliliter (concentration), divided by grams (weight).", "preferredTerm": "Femtogram per Milliliter per Gram", "submissionValue": "pg/mL/kg", "synonyms": ["fg/mL/g", "pg/mL/kg"]}, {"conceptId": "C119497", "definition": "Picomoles per liter (concentration), divided by kilograms (weight).", "preferredTerm": "Picomole per Liter per Kilogram", "submissionValue": "pmol/L/kg"}, {"conceptId": "C119351", "definition": "Micrograms per milliliter (concentration), divided by kilograms (weight) or nanograms per milliliter (concentration), divided by grams (weight) or picograms per milliliter (concentration), divided by milligrams (dose) or femtograms per milliliter (concentration), divided by micrograms (dose).", "preferredTerm": "Femtogram per Milliliter per Microgram", "submissionValue": "ug/mL/kg", "synonyms": ["fg/mL/ug", "ng/mL/g", "pg/mL/mg", "ug/mL/kg"]}, {"conceptId": "C119525", "definition": "Micro-international units per milliliter (concentration), divided by kilograms (weight).", "preferredTerm": "Micro-International Units per Milliliter per Kilogram", "submissionValue": "uIU/mL/kg"}, {"conceptId": "C119467", "definition": "Micromoles per liter (concentration), divided by kilograms (weight) or nanomoles per liter (concentration), divided by grams (weight) or picomoles per liter (concentration), divided by milligrams (dose).", "preferredTerm": "Nanomole per Liter per Gram", "submissionValue": "umol/L/kg", "synonyms": ["nmol/L/g", "pmol/L/mg", "umol/L/kg"]}]}