{"_links": {"parentPackage": {"href": "/mdr/ct/packages/sendct-2022-03-25", "title": "SEND Controlled Terminology Package 49 Effective 2022-03-25", "type": "Terminology"}, "priorVersion": {"href": "/mdr/ct/packages/sendct-2021-12-17/codelists/C77529", "title": "CDISC SEND Biospecimens Terminology", "type": "Code List"}, "rootItem": {"href": "/mdr/root/ct/sendct/codelists/C77529", "title": "Version-agnostic anchor resource for codelist C77529", "type": "Root Value Domain"}, "self": {"href": "/mdr/ct/packages/sendct-2022-03-25/codelists/C77529", "title": "CDISC SEND Biospecimens Terminology", "type": "Code List"}}, "conceptId": "C77529", "definition": "Terminology related to any material sample taken from a biological entity.", "extensible": "true", "name": "Specimen", "preferredTerm": "CDISC SEND Biospecimens Terminology", "submissionValue": "SPEC", "synonyms": ["Specimen"], "terms": [{"conceptId": "C77608", "definition": "The tissue that surrounds the organs present in the abdominal cavity.", "preferredTerm": "Abdominal Wall", "submissionValue": "ABDOMINAL WALL"}, {"conceptId": "C98702", "definition": "The glandular stomach of ruminants.", "preferredTerm": "Abomasum", "submissionValue": "ABOMASUM"}, {"conceptId": "C12472", "definition": "Connective tissue consisting primarily of adipocytes (fat cells) and supporting structural matrix.", "preferredTerm": "Adipose Tissue", "submissionValue": "ADIPOSE TISSUE", "synonyms": ["Body Fat", "Fat Tissue"]}, {"conceptId": "C32235", "definition": "Brown-colored adipose tissue that contains numerous small droplets of lipids and high numbers of mitochondria.", "preferredTerm": "Brown Adipose Tissue", "submissionValue": "ADIPOSE TISSUE, BROWN", "synonyms": ["BAT", "Brown Fat"]}, {"conceptId": "C33889", "definition": "White-colored adipose tissue that is predominantly composed of cells with a large single vacuole containing lipid.", "preferredTerm": "White Adipose Tissue", "submissionValue": "ADIPOSE TISSUE, WHITE", "synonyms": ["White Fat"]}, {"conceptId": "C120926", "definition": "A part of the respiratory system in multiple species (predominantly avian) which are variably connected with the lung.", "preferredTerm": "Air Sac", "submissionValue": "AIR SAC"}, {"conceptId": "C12372", "definition": "A blood vessel that carries blood away from the heart. (NCI)", "preferredTerm": "Artery", "submissionValue": "ARTERY", "synonyms": ["Artery"]}, {"conceptId": "C12669", "definition": "The major artery of the body; it arises from the left ventricle of the heart and terminally bifurcates into the common iliac arteries.", "preferredTerm": "Aorta", "submissionValue": "ARTERY, AORTA"}, {"conceptId": "C52849", "definition": "One of the arteries of the pinna; in general it arises from the internal carotid artery or the superficial temporal artery.", "preferredTerm": "Auricular Artery", "submissionValue": "ARTERY, AURICULAR"}, {"conceptId": "C12681", "definition": "An artery of the forelimb; in general it arises from the axillary artery and branches to form the radial and ulnar arteries.", "preferredTerm": "Brachial Artery", "submissionValue": "ARTERY, BRACHIAL"}, {"conceptId": "C32814", "definition": "An artery of the mediastinum; in general it arises from the aortic arch and branches to form the right subclavian artery and one or both common carotid arteries.", "preferredTerm": "Innominate Artery", "submissionValue": "ARTERY, BRACHIOCEPHALIC", "synonyms": ["Innominate Artery"]}, {"conceptId": "C12687", "definition": "An artery of the mediastinum and neck; in general it arises as a primary or secondary branch of the aortic arch and branches into the internal and external carotid arteries.", "preferredTerm": "Common Carotid Artery", "submissionValue": "ARTERY, CAROTID", "synonyms": ["Common Carotid Artery"]}, {"conceptId": "C12843", "definition": "One of the arteries of the heart; in general it arises from the aortic root and supplies the myocardium.", "preferredTerm": "Coronary Artery", "submissionValue": "ARTERY, CORONARY"}, {"conceptId": "C12715", "definition": "An artery of the thigh; in general it arises from the external iliac artery distal to the inguinal ligment and continues as the popliteal artery.", "preferredTerm": "Femoral Artery", "submissionValue": "ARTERY, FEMORAL"}, {"conceptId": "C12733", "definition": "An artery of the pelvic region and legs/hindlimbs; in general it arises from the bifurcation of the aorta and branches into the external and internal iliac arteries.", "preferredTerm": "Iliac Artery", "submissionValue": "ARTERY, ILIAC"}, {"conceptId": "C52941", "definition": "An artery of the thoracic wall; in general it arises from the subclavian artery and branches into the musculophrenic and superior epigastric arteries.", "preferredTerm": "Internal Mammary Artery", "submissionValue": "ARTERY, INTERNAL THORACIC"}, {"conceptId": "C52975", "definition": "One of the arteries of the abdomen; in general it arises from the abdominal aorta and supplies blood mainly to the intestines.", "preferredTerm": "Mesenteric Artery", "submissionValue": "ARTERY, MESENTERIC"}, {"conceptId": "C12774", "definition": "One of the arteries of the thorax; in general it arises from the pulmonary trunk and branches into the lungs.", "preferredTerm": "Pulmonary Artery", "submissionValue": "ARTERY, PULMONARY"}, {"conceptId": "C12778", "definition": "One of the arteries of the abdomen; in general it arises from the abdominal aorta and supplies blood to the kidney.", "preferredTerm": "Renal Artery", "submissionValue": "ARTERY, RENAL"}, {"conceptId": "C33587", "definition": "One of the arteries of the spine; in general it arises from the vertebral artery and supplies blood to the spinal cord.", "preferredTerm": "Spinal Artery", "submissionValue": "ARTERY, SPINAL"}, {"conceptId": "C33643", "definition": "One of the arteries of the thorax; in general it arises from the brachiocephalic artery or the aortic arch and branches into several arteries to supply blood to the head, neck, and arm/forelimb.", "preferredTerm": "Subclavian Artery", "submissionValue": "ARTERY, SUBCLAVIAN"}, {"conceptId": "C13347", "definition": "Fluid withdrawn from a body cavity, cyst, or tumor. (NCI)", "preferredTerm": "Aspirate", "submissionValue": "ASPIRATE"}, {"conceptId": "C13192", "definition": "Fluid composed of waste products, bile acids, salts, cholesterol, and electrolytes. It is produced by the liver and may be stored in the gallbladder (if present).", "preferredTerm": "Bile", "submissionValue": "BILE"}, {"conceptId": "C70699", "definition": "Any material collected from a biological entity for testing, diagnostic, propagation, treatment, or research purposes.", "preferredTerm": "Biospecimen", "submissionValue": "BIOSPECIMEN", "synonyms": ["Biological Sample", "Biological Specimen", "Biospecimen", "Sample"]}, {"conceptId": "C25444", "definition": "A natural hollow or sinus within the body. (NCI)", "preferredTerm": "Body Cavity", "submissionValue": "BODY CAVITY"}, {"conceptId": "C12664", "definition": "The body cavity between the thoracic and pelvic cavities in mammals.", "preferredTerm": "Abdomen", "submissionValue": "BODY CAVITY, ABDOMINAL", "synonyms": ["Abdomen"]}, {"conceptId": "C77638", "definition": "The space that is formed by the bones of the skull, and contains the brain.", "preferredTerm": "Cranial Cavity", "submissionValue": "BODY CAVITY, CRANIAL", "synonyms": ["Intracranial Cavity"]}, {"conceptId": "C92208", "definition": "The space of the abdominal and pelvic cavities outside the peritoneum. (NCI)", "preferredTerm": "Extraperitoneal Space", "submissionValue": "BODY CAVITY, EXTRAPERITONEAL", "synonyms": ["Extraperitoneal Area", "Extraperitoneal Space"]}, {"conceptId": "C12424", "definition": "The upper respiratory tract extending from the nares to the pharynx.", "preferredTerm": "Nasal Cavity", "submissionValue": "BODY CAVITY, NASAL"}, {"conceptId": "C12421", "definition": "The cavity of the mouth.", "preferredTerm": "Oral Cavity", "submissionValue": "BODY CAVITY, ORAL", "synonyms": ["Buccal cavity", "Mouth"]}, {"conceptId": "C12347", "definition": "The bony cavity that contains the eye and its associated structures.", "preferredTerm": "Orbit", "submissionValue": "BODY CAVITY, ORBITAL", "synonyms": ["Eye Socket", "Ocular Orbit", "Orbit"]}, {"conceptId": "C12767", "definition": "The bony, basin-shaped structure formed by the bones of the pelvis.", "preferredTerm": "Pelvis", "submissionValue": "BODY CAVITY, PELVIC", "synonyms": ["Pelvic Region", "Pelvis"]}, {"conceptId": "C38662", "definition": "The body space between the epicardium and the pericardium.", "preferredTerm": "Pericardial Cavity", "submissionValue": "BODY CAVITY, PERICARDIAL"}, {"conceptId": "C12769", "definition": "A part of the abdominal cavity that lies between the visceral and parietal peritoneum.", "preferredTerm": "Peritoneal Cavity", "submissionValue": "BODY CAVITY, PERITONEAL"}, {"conceptId": "C12840", "definition": "A part of the thoracic cavity that lies between the visceral and parietal pleura.", "preferredTerm": "Pleural Cavity", "submissionValue": "BODY CAVITY, PLEURAL"}, {"conceptId": "C12905", "definition": "The cavity enclosed by the ribs between the diaphragm and the neck.", "preferredTerm": "Thoracic Cavity", "submissionValue": "BODY CAVITY, THORACIC"}, {"conceptId": "C12431", "definition": "The tissue occupying the spaces of some bones. It consists of blood vessel sinuses and a network of hematopoietic cells.", "preferredTerm": "Bone Marrow", "submissionValue": "BONE MARROW"}, {"conceptId": "C77686", "definition": "Bone marrow in the femoral bone. (NCI)", "preferredTerm": "Bone Marrow, Femur", "submissionValue": "BONE MARROW, FEMUR", "synonyms": ["Bone Marrow, Femoral"]}, {"conceptId": "C77687", "definition": "Bone marrow in the humerus bone. (NCI)", "preferredTerm": "Bone Marrow, Humerus", "submissionValue": "BONE MARROW, HUMERUS"}, {"conceptId": "C77688", "definition": "Bone marrow in the rib. (NCI)", "preferredTerm": "Bone Marrow, Rib", "submissionValue": "BONE MARROW, RIB"}, {"conceptId": "C77689", "definition": "Bone marrow in the scapula. (NCI)", "preferredTerm": "Bone Marrow, Scapula", "submissionValue": "BONE MARROW, SCAPULA"}, {"conceptId": "C77690", "definition": "Bone marrow in the sternum. (NCI)", "preferredTerm": "Bone Marrow, Sternum", "submissionValue": "BONE MARROW, STERNUM", "synonyms": ["Bone Marrow, Sternal"]}, {"conceptId": "C77691", "definition": "Bone marrow in the tibia bone. (NCI)", "preferredTerm": "Bone Marrow, Tibia", "submissionValue": "BONE MARROW, TIBIA"}, {"conceptId": "C77692", "definition": "Bone marrow in a vertebral bone. (NCI)", "preferredTerm": "Bone Marrow, Vertebral", "submissionValue": "BONE MARROW, VERTEBRUM", "synonyms": ["Bone Marrow, Vertebral"]}, {"conceptId": "C12366", "definition": "Calcified connective tissue that forms the skeletal components of the body. (NCI)", "preferredTerm": "Bone", "submissionValue": "BONE"}, {"conceptId": "C32164", "definition": "Any of the small bones in the middle ear that transmit acoustic vibrations from the eardrum to the inner ear.", "preferredTerm": "Auditory Ossicle", "submissionValue": "BONE, AUDITORY OSSICLES", "synonyms": ["Ossicles of the Ear"]}, {"conceptId": "C81188", "definition": "The roof or dome of the skull. (NCI)", "preferredTerm": "Skullcap", "submissionValue": "BONE, CALVARIUM"}, {"conceptId": "C12688", "definition": "Any of the bones of the joint located between the radius and ulna and metacarpus.", "preferredTerm": "Carpal Bone", "submissionValue": "BONE, CARPAL"}, {"conceptId": "C12695", "definition": "The paired bone that is situated between the sternum and the shoulder.", "preferredTerm": "Clavicle", "submissionValue": "BONE, CLAVICLE"}, {"conceptId": "C83002", "definition": "A rounded bony projection at the end of the bone. (NCI)", "preferredTerm": "Condyle", "submissionValue": "BONE, CONDYLE"}, {"conceptId": "C12717", "definition": "The bone positioned between the pelvis and the femorotibial joint.", "preferredTerm": "Femur", "submissionValue": "BONE, FEMUR", "synonyms": ["Bone, Femoral"]}, {"conceptId": "C135523", "definition": "A tissue sample that contains the femur and femorotibial joint. (NCI)", "preferredTerm": "Femur/Femorotibial Joint", "submissionValue": "BONE, FEMUR/JOINT, FEMOROTIBIAL"}, {"conceptId": "C12718", "definition": "The long bone that is lateral to the tibia.", "preferredTerm": "Fibula", "submissionValue": "BONE, FIBULA"}, {"conceptId": "C12731", "definition": "The bone between the scapulohumeral and humeroulnar joints.", "preferredTerm": "Humerus", "submissionValue": "BONE, HUMERUS", "synonyms": ["Bone, Humeral"]}, {"conceptId": "C32765", "definition": "The broad, dorsal, upper, and widest of the three principal bones composing either half of the pelvis. (NCI)", "preferredTerm": "Ilium", "submissionValue": "BONE, ILIUM", "synonyms": ["Ilium"]}, {"conceptId": "C12290", "definition": "The lower jaw bone holding the lower teeth. (NCI)", "preferredTerm": "Mandible", "submissionValue": "BONE, MANDIBLE", "synonyms": ["Bone, Mandibular", "Inferior Maxillary Bone", "Lower Jaw", "Mandible"]}, {"conceptId": "C26470", "definition": "The upper jaw bone holding the upper teeth.", "preferredTerm": "Maxilla", "submissionValue": "BONE, MAXILLA"}, {"conceptId": "C12751", "definition": "Any of the bones between the carpus and the phalanges.", "preferredTerm": "Metacarpal Bone", "submissionValue": "BONE, METACARPAL"}, {"conceptId": "C12752", "definition": "Any of the bones between the tarsus and the phalanges.", "preferredTerm": "Metatarsal Bone", "submissionValue": "BONE, METATARSAL", "synonyms": ["Metatarsal Bone"]}, {"conceptId": "C33282", "definition": "A small bone in front of the femorotibial joint that articulates with the femur.", "preferredTerm": "Patella", "submissionValue": "BONE, PATELLA"}, {"conceptId": "C33287", "definition": "The bony structure composed of the ilium, ishium, pubis and sacrum, which are typically fused during maturation.", "preferredTerm": "Pelvic Bone", "submissionValue": "BONE, PELVIS", "synonyms": ["Pelvic Bone"]}, {"conceptId": "C33317", "definition": "Any of the bones that make up the digits of the hand/forepaw, foot/hindpaw, or hoof.", "preferredTerm": "Phalanx", "submissionValue": "BONE, PHALANGE", "synonyms": ["Phalanx"]}, {"conceptId": "C12777", "definition": "The long bone that lies between the radiohumeral joint and the carpus and is adjacent to the ulna.", "preferredTerm": "Radius Bone", "submissionValue": "BONE, RADIUS"}, {"conceptId": "C12782", "definition": "Any one of the paired bones, extending from the thoracic vertebrae toward the median line on the ventral aspect of the trunk.", "preferredTerm": "Rib", "submissionValue": "BONE, RIB"}, {"conceptId": "C12783", "definition": "A bone that articulates with the humerus and is part of the scapulohumeral joint.", "preferredTerm": "Scapula", "submissionValue": "BONE, SCAPULA", "synonyms": ["Shoulder Blade"]}, {"conceptId": "C12789", "definition": "The bones that form the head, made up of the bones of the braincase and face. (NCI)", "preferredTerm": "Skull", "submissionValue": "BONE, SKULL", "synonyms": ["Bone, Skull", "Cranium", "Skull Bone"]}, {"conceptId": "C12793", "definition": "The long, flat bone or sternebrae connecting with the cartilage of some ribs.", "preferredTerm": "Sternum", "submissionValue": "BONE, STERNUM", "synonyms": ["Sterna"]}, {"conceptId": "C12796", "definition": "Any of the short bones between the tibiotarsal joint and the tarsometatarsal joint.", "preferredTerm": "Tarsal Bone", "submissionValue": "BONE, TARSUS", "synonyms": ["Bone, Tarsal"]}, {"conceptId": "C12800", "definition": "The long bone that is medial to the fibula.", "preferredTerm": "Tibia", "submissionValue": "BONE, TIBIA"}, {"conceptId": "C12809", "definition": "The bone that contains the olecranon process, lies between the radiohumeral joint and the carpus, and is adjacent to the radius.", "preferredTerm": "Ulna", "submissionValue": "BONE, ULNA"}, {"conceptId": "C33868", "definition": "One of the bones that make up the vertebral column.", "preferredTerm": "Vertebral Bone", "submissionValue": "BONE, VERTEBRA", "synonyms": ["Vertebra", "Vertebral Bone"]}, {"conceptId": "C12439", "definition": "An organ composed of gray and white matter that is the center for intelligence and reasoning. It is protected by the bony cranium.", "preferredTerm": "Brain", "submissionValue": "BRAIN", "synonyms": ["Nervous System, Brain"]}, {"conceptId": "C12440", "definition": "A group of nuclei adjacent to the lateral ventricle of the brain within the temporal lobe, and is part of the limbic system.", "preferredTerm": "Amygdala", "submissionValue": "BRAIN, AMYGDALOID BODY", "synonyms": ["Amygdala", "Amygdaloid Body", "Amygdaloid Nucleus"]}, {"conceptId": "C12447", "definition": "Clusters of neurons comprising the globus pallidus, putamen, caudate, nucleus accumbens, substantia nigra and subthalamic nucleus.", "preferredTerm": "Basal Ganglia", "submissionValue": "BRAIN, BASAL GANGLIA"}, {"conceptId": "C12441", "definition": "The part of the brain that connects the cerebral hemispheres with the spinal cord. It consists of the mesencephalon, pons, and medulla oblongata. (NCI)", "preferredTerm": "Brain Stem", "submissionValue": "BRAIN, BRAIN STEM", "synonyms": ["Brain Stem"]}, {"conceptId": "C12445", "definition": "The portion of the brain that extends from the brainstem through the cerebellar folia.", "preferredTerm": "Cerebellum", "submissionValue": "BRAIN, CEREBELLUM"}, {"conceptId": "C12351", "definition": "The portion of the brain comprising the frontal, parietal, temporal, and occipital lobes and extending through the thalamus.", "preferredTerm": "Cerebral Hemisphere", "submissionValue": "BRAIN, CEREBRUM"}, {"conceptId": "C12694", "definition": "Blood vessels and ependyma forming villous structures in the ventricles of the brain.", "preferredTerm": "Choroid Plexus", "submissionValue": "BRAIN, CHOROID PLEXUS"}, {"conceptId": "C12837", "definition": "A collection of nuclei in the brainstem at which the auditory nerves terminate.", "preferredTerm": "Cochlear Nucleus", "submissionValue": "BRAIN, COCHLEAR NUCLEI"}, {"conceptId": "C12446", "definition": "A white matter structure within the brain that connects the left and right cerebral hemispheres.", "preferredTerm": "Corpus Callosum", "submissionValue": "BRAIN, CORPUS CALLOSUM"}, {"conceptId": "C40185", "definition": "The largest part of the brain composed of the cerebral hemispheres, thalamus, hypothalamus, and the limbic system. (NCI)", "preferredTerm": "Forebrain", "submissionValue": "BRAIN, FOREBRAIN"}, {"conceptId": "C12444", "definition": "A curved gray matter structure of the cerebrum that is part of the limbic system.", "preferredTerm": "Hippocampus", "submissionValue": "BRAIN, HIPPOCAMPUS"}, {"conceptId": "C12458", "definition": "A small region of the brain composed of multiple nuclei and located underneath the thalamus.", "preferredTerm": "Hypothalamus", "submissionValue": "BRAIN, HYPOTHALAMUS"}, {"conceptId": "C12442", "definition": "The portion of the brainstem between the pons and cervical spinal cord.", "preferredTerm": "Medulla Oblongata", "submissionValue": "BRAIN, MEDULLA OBLONGATA"}, {"conceptId": "C12510", "definition": "The portion of the brainstem between the pons and diencephalon.", "preferredTerm": "Mesencephalon", "submissionValue": "BRAIN, MIDBRAIN", "synonyms": ["Mesencephalon"]}, {"conceptId": "C92592", "definition": "The region of the medulla oblongata at which the fourth ventricle transitions into the central canal of the spinal cord.", "preferredTerm": "Obex Region", "submissionValue": "BRAIN, OBEX"}, {"conceptId": "C28401", "definition": "The portion of the vertebrate forebrain that lies behind the ethmoid bones; it begins the rhinencephalon.", "preferredTerm": "Olfactory Bulb", "submissionValue": "BRAIN, OLFACTORY BULB"}, {"conceptId": "C12511", "definition": "The portion of the brainstem between the midbrain and medulla oblongata.", "preferredTerm": "Pons Varolii", "submissionValue": "BRAIN, PONS", "synonyms": ["Pons Varolii"]}, {"conceptId": "C12453", "definition": "The portion of the midbrain composed of two parts, the pars compacta and pars reticulata.", "preferredTerm": "Substantia Nigra", "submissionValue": "BRAIN, SUBSTANTIA NIGRA"}, {"conceptId": "C12459", "definition": "The portion of the diencephalon forming most of each lateral wall of the third ventricle.", "preferredTerm": "Thalamus", "submissionValue": "BRAIN, THALAMUS"}, {"conceptId": "C97340", "definition": "A brain region in the occipital cortex that receives visual stimuli from the retina. (NCI)", "preferredTerm": "Primary Visual Cortex", "submissionValue": "BRAIN, VISUAL CORTEX"}, {"conceptId": "C12683", "definition": "Tubular structure in continuation with the trachea, serving as an air passage.", "preferredTerm": "Bronchus", "submissionValue": "BRONCHUS", "synonyms": ["Bronchi"]}, {"conceptId": "C32234", "definition": "Lymphoid tissue located in the mucosa of the bronchi.", "preferredTerm": "Bronchus-Associated Lymphoid Tissue", "submissionValue": "BRONCHUS-ASSOCIATED LYMPHOID TISSUE", "synonyms": ["BALT"]}, {"conceptId": "C84507", "definition": "The middle fraction of an anticoagulated blood specimen following separation by centrifugation. It contains most of the white blood cells and platelets.", "preferredTerm": "Buffy Coat", "submissionValue": "BUFFY COAT"}, {"conceptId": "C111141", "definition": "A region of the cloaca in avian species responsible for B-cell maturation.", "preferredTerm": "Bursa Of Fabricius", "submissionValue": "BURSA OF FABRICIUS"}, {"conceptId": "C25264", "definition": "A ridge at the bifurcation of the trachea where the primary bronchi meet.", "preferredTerm": "Carina", "submissionValue": "CARINA", "synonyms": ["Carina, Tracheal"]}, {"conceptId": "C66852", "definition": "A cluster of cells that function as chemo-receptors, located near the bifurcation of the carotid artery.", "preferredTerm": "Carotid Body", "submissionValue": "CAROTID BODY"}, {"conceptId": "C32268", "definition": "A type of connective tissue composed of chondrocytes and an extracellular matrix. There are three types of cartilage; namely elastic, hyaline, and fibrocartilage.", "preferredTerm": "Cartilaginous Tissue", "submissionValue": "CARTILAGE", "synonyms": ["Cartilaginous"]}, {"conceptId": "C12311", "definition": "The portion of the uterus (or uterine horns) that empties into the vagina.", "preferredTerm": "Cervix Uteri", "submissionValue": "CERVIX", "synonyms": ["Cervix Uteri", "Uterine Cervix"]}, {"conceptId": "C111156", "definition": "An invagination of the oral mucosa within the cheek of some mammals that forms a pocket.", "preferredTerm": "Cheek Pouch", "submissionValue": "CHEEK POUCH"}, {"conceptId": "C13070", "definition": "The soft tissue on the lateral aspects of the face, generally bounded by the eyes, nose, ear, and jaw line.", "preferredTerm": "Cheek", "submissionValue": "CHEEK"}, {"conceptId": "C12308", "definition": "The erectile tissue in the vulva. It is composed of the corpora cavernosa and the glans clitoris.", "preferredTerm": "Clitoris", "submissionValue": "CLITORIS"}, {"conceptId": "C34127", "definition": "The singular posterior opening of the intestinal and urinary tracts of birds, reptiles, amphibians, marsupials and monotremes. (NCI)", "preferredTerm": "Cloaca", "submissionValue": "CLOACA"}, {"conceptId": "C12341", "definition": "A thin tissue divided into the palpebral conjunctiva (covering the inner side of the eye lid) and the bulbar conjunctiva (covering the eyeball). (NCI)", "preferredTerm": "Conjunctiva", "submissionValue": "CONJUNCTIVA"}, {"conceptId": "C12902", "definition": "The part of the conjunctiva that covers the eyeball.", "preferredTerm": "Bulbar Conjunctiva", "submissionValue": "CONJUNCTIVA, BULBAR"}, {"conceptId": "C12901", "definition": "The part of the conjunctiva that covers the inner surface of the eyelid.", "preferredTerm": "Palpebral Conjunctiva", "submissionValue": "CONJUNCTIVA, PALPEBRAL"}, {"conceptId": "C12374", "definition": "The supporting or framework tissue of the body, formed of fibrous and ground substance with a variety of cell types. The varieties of connective tissue are: areolar or loose; adipose; dense, regular or irregular, white fibrous; elastic; mucous; lymphoid tissue; cartilage; bone.", "preferredTerm": "Connective Tissue", "submissionValue": "CONNECTIVE TISSUE"}, {"conceptId": "C12316", "definition": "The body of the uterus.", "preferredTerm": "Corpus Uteri", "submissionValue": "CORPUS UTERI", "synonyms": ["Uterine Body", "Uterus, Corpus"]}, {"conceptId": "C32392", "definition": "A synchondrosis between the rib and the costal cartilage.", "preferredTerm": "Costochondral Joint", "submissionValue": "COSTOCHONDRAL JUNCTION", "synonyms": ["Costochondral Joint", "Costochondral Junction, Rib"]}, {"conceptId": "C111162", "definition": "A saccular expansion of the esophagus in most avian species that can be used for food storage.", "preferredTerm": "Crop", "submissionValue": "CROP", "synonyms": ["Ingluvies"]}, {"conceptId": "C12948", "definition": "A tube that carries various secretions from one part of the body to another. (NCI)", "preferredTerm": "Duct", "submissionValue": "DUCT"}, {"conceptId": "C12376", "definition": "Any of the ducts conveying bile between the liver and the intestine, including hepatic, cystic, and common bile duct.", "preferredTerm": "Bile Duct", "submissionValue": "DUCT, BILE"}, {"conceptId": "C12698", "definition": "A duct that conveys bile from the convergence of the cystic and hepatic duct to the duodenum.", "preferredTerm": "Common Bile Duct", "submissionValue": "DUCT, COMMON BILE", "synonyms": ["Common Duct", "Common Hepatic Duct"]}, {"conceptId": "C32356", "definition": "A duct that conveys bile from the convergence of the left and right hepatic ducts to the common bile duct.", "preferredTerm": "Common Hepatic Duct", "submissionValue": "DUCT, COMMON HEPATIC"}, {"conceptId": "C32421", "definition": "A duct that conveys bile from the gallbladder to the common bile duct.", "preferredTerm": "Cystic Duct", "submissionValue": "DUCT, CYSTIC"}, {"conceptId": "C32492", "definition": "A duct or ducts that convey spermatozoa from the rete testis to the head of the epididymis.", "preferredTerm": "Efferent Duct", "submissionValue": "DUCT, EFFERENT"}, {"conceptId": "C33161", "definition": "A duct that conveys tears from the eye to the nasal cavity.", "preferredTerm": "Nasolacrimal Duct", "submissionValue": "DUCT, NASOLACRIMAL"}, {"conceptId": "C154699", "definition": "Any of the ducts that conveys pancreatic secretions from the pancreas to the duodenum.", "preferredTerm": "Main Pancreatic and Accessory Ducts", "submissionValue": "DUCT, PANCREATIC"}, {"conceptId": "C12498", "definition": "A tubular structure that runs from the outer ear to the tympanic membrane.", "preferredTerm": "External Acoustic Meatus", "submissionValue": "EAR CANAL"}, {"conceptId": "C12394", "definition": "A sensory organ that contains auditory and vestibular apparatuses.", "preferredTerm": "Ear", "submissionValue": "EAR"}, {"conceptId": "C12395", "definition": "The snail shell-shaped auditory component of the inner ear.", "preferredTerm": "Cochlea", "submissionValue": "EAR, COCHLEA"}, {"conceptId": "C12328", "definition": "A crescent-like structure located adjacent to the testis. It consists of a single highly coiled duct and is divided into 3 regions: caput (head), corpus (body) and cauda (tail).", "preferredTerm": "Epididymis", "submissionValue": "EPIDIDYMIS"}, {"conceptId": "C33732", "definition": "The region of the epididymis that connects to the vas deferens.", "preferredTerm": "Tail of the Epididymis", "submissionValue": "EPIDIDYMIS, CAUDA"}, {"conceptId": "C32529", "definition": "The end of long bones that lies adjacent to the metaphysis.", "preferredTerm": "Epiphysis of the Bone", "submissionValue": "EPIPHYSIS"}, {"conceptId": "C12389", "definition": "The portion of the digestive tract between the pharynx and stomach.", "preferredTerm": "Esophagus", "submissionValue": "ESOPHAGUS"}, {"conceptId": "C12500", "definition": "A tubular structure that extends from the middle ear to the nasopharynx.", "preferredTerm": "Eustachian Tube", "submissionValue": "EUSTACHIAN TUBE", "synonyms": ["Auditory Tube", "Pharyngotympanic Tube", "Tuba Auditoria"]}, {"conceptId": "C12401", "definition": "The sensory organ of vision.", "preferredTerm": "Eye", "submissionValue": "EYE", "synonyms": ["Eyeball"]}, {"conceptId": "C12667", "definition": "The space in the eye filled with aqueous humor and bounded by the cornea, a small portion of the sclera, a small portion of the ciliary body, the iris and lens. (Cline et al., Dictionary of Visual Science, 4th ed, p109)", "preferredTerm": "Anterior Chamber of the Eye", "submissionValue": "EYE, ANTERIOR CHAMBER"}, {"conceptId": "C13190", "definition": "The watery fluid which is present in the anterior and posterior chambers of the eye. (NCI)", "preferredTerm": "Aqueous Humor", "submissionValue": "EYE, AQUEOUS HUMOR", "synonyms": ["Aqueous Humour"]}, {"conceptId": "C12344", "definition": "A blood vessel-containing membrane of the eye that lies between the retina and the sclera. (NCI)", "preferredTerm": "Choroid", "submissionValue": "EYE, CHOROID"}, {"conceptId": "C12345", "definition": "Circumferential tissue located behind the iris and composed of muscle and epithelium.", "preferredTerm": "Ciliary Body", "submissionValue": "EYE, CILIARY BODY"}, {"conceptId": "C12342", "definition": "The transparent, avascular tissue covering the front of the eye and is continuous with the sclera.", "preferredTerm": "Cornea", "submissionValue": "EYE, CORNEA"}, {"conceptId": "C12737", "definition": "The tissue in the eye that separates the anterior chamber from the posterior chamber.", "preferredTerm": "Iris", "submissionValue": "EYE, IRIS"}, {"conceptId": "C12743", "definition": "The structure of the eye through which light is focused onto the retina.", "preferredTerm": "Lens", "submissionValue": "EYE, LENS", "synonyms": ["Crystalline Lens", "Ocular Lens"]}, {"conceptId": "C12900", "definition": "A space within the eye located between the iris and the lens. It is filled with aqueous humor. (NCI)", "preferredTerm": "Posterior Chamber of the Eye", "submissionValue": "EYE, POSTERIOR CHAMBER", "synonyms": ["Eye, Posterior Compartment"]}, {"conceptId": "C49328", "definition": "The sensory tissue in the posterior portion of the eye that contains photoreceptors.", "preferredTerm": "Retina Layer", "submissionValue": "EYE, RETINA"}, {"conceptId": "C12784", "definition": "The fibrous, outer tunic of the eyeball that is continuous with the cornea.", "preferredTerm": "Sclera", "submissionValue": "EYE, SCLERA"}, {"conceptId": "C12811", "definition": "The pigmented layer of the eyeball between the tough, white outer coat of the eye and the retina. (NCI)", "preferredTerm": "Uvea", "submissionValue": "EYE, UVEA", "synonyms": ["Uvea"]}, {"conceptId": "C33884", "definition": "The clear gelatinous material that occupies the space between the lens and the retina.", "preferredTerm": "Vitreous Body", "submissionValue": "EYE, VITREOUS"}, {"conceptId": "C12713", "definition": "The section of skin, containing muscle and conjunctiva, that covers and protects the eye.", "preferredTerm": "Eyelid", "submissionValue": "EYELID", "synonyms": ["Palpebra"]}, {"conceptId": "C13071", "definition": "The portion of the head that contains the structures such as the eyes, nose, mouth, and jaws.", "preferredTerm": "Face", "submissionValue": "FACE"}, {"conceptId": "C13234", "definition": "The material discharged from the bowel during defecation. It consists of undigested food, intestinal mucus, epithelial cells, and bacteria. (NCI)", "preferredTerm": "Feces", "submissionValue": "FECES", "synonyms": ["Feces"]}, {"conceptId": "C17730", "definition": "Any prenatal tissue that has developed past the embryonic stage.", "preferredTerm": "Fetal Tissue", "submissionValue": "FETUS"}, {"conceptId": "C13236", "definition": "Liquid substances produced by the body.", "preferredTerm": "Body Fluid or Substance", "submissionValue": "FLUID"}, {"conceptId": "C77611", "definition": "The fluid within the abdomen, which may contain peritoneal or other fluids.", "preferredTerm": "Abdominal Fluid", "submissionValue": "FLUID, ABDOMINAL"}, {"conceptId": "C13188", "definition": "The fluid within the amniotic cavity which surrounds and protects the developing embryo. (NCI)", "preferredTerm": "Amniotic Fluid", "submissionValue": "FLUID, AMNIOTIC", "synonyms": ["Aqua Amnii"]}, {"conceptId": "C13195", "definition": "Fluid introduced into, and collected from, the lungs by a bronchoalveolar lavage procedure. (NCI)", "preferredTerm": "Bronchoalveolar Lavage Fluid", "submissionValue": "FLUID, BRONCHOALVEOLAR LAVAGE", "synonyms": ["Bronchial Lavage Fluid", "Fluid, Bronchial Lavage"]}, {"conceptId": "C12692", "definition": "The fluid that is contained within the brain ventricles, the subarachnoid space and the central canal of the spinal cord. (NCI)", "preferredTerm": "Cerebrospinal Fluid", "submissionValue": "FLUID, CEREBROSPINAL", "synonyms": ["CSF"]}, {"conceptId": "C3319", "definition": "The fluid within the pericardial cavity.", "preferredTerm": "Pericardial Effusion", "submissionValue": "FLUID, PERICARDIAL"}, {"conceptId": "C77612", "definition": "The fluid within the peritoneal cavity.", "preferredTerm": "Peritoneal Fluid", "submissionValue": "FLUID, PERITONEAL"}, {"conceptId": "C77613", "definition": "The fluid within the pleural cavity.", "preferredTerm": "Pleural Fluid", "submissionValue": "FLUID, PLEURAL"}, {"conceptId": "C33718", "definition": "The fluid within a joint capsule.", "preferredTerm": "Synovial Fluid", "submissionValue": "FLUID, SYNOVIAL", "synonyms": ["Synovia"]}, {"conceptId": "C125897", "definition": "Fluid that is present in the thoracic cavity.", "preferredTerm": "Thoracic Fluid", "submissionValue": "FLUID, THORAX"}, {"conceptId": "C32622", "definition": "The entire structure distal to the ankle joint/tarsus, which includes the metatarsus and digit(s).", "preferredTerm": "Foot", "submissionValue": "FOOT"}, {"conceptId": "C92654", "definition": "A thick, spongy layer of tissue located under the metacarpal and metatarsal joints of the foot. It consists of a pad of adipose tissue covered by a thick epidermis containing dermal sweat glands.", "preferredTerm": "Footpad", "submissionValue": "FOOTPAD"}, {"conceptId": "C176321", "definition": "The anterior, front or upper limb of an animal.", "preferredTerm": "Fore Limb", "submissionValue": "FORELIMB"}, {"conceptId": "C12377", "definition": "A sac-like organ located adjacent to the liver that stores and concentrates bile produced by the liver.", "preferredTerm": "Gallbladder", "submissionValue": "GALLBLADDER"}, {"conceptId": "C12719", "definition": "A cluster of nervous tissue principally composed of neuronal cell bodies external to the central nervous system (CNS). (NCI)", "preferredTerm": "Ganglion", "submissionValue": "GANGLION", "synonyms": ["Ganglia", "Ganglion", "Neural Ganglion"]}, {"conceptId": "C98713", "definition": "Any of the sympathetic ganglia of the cervical vertebrae.", "preferredTerm": "Cervical Ganglia", "submissionValue": "GANGLION, CERVICAL"}, {"conceptId": "C92211", "definition": "A sympathetic ganglion located near the junction of the cervical region and thorax.", "preferredTerm": "Inferior Cervical Ganglion", "submissionValue": "GANGLION, CERVICOTHORACIC"}, {"conceptId": "C12462", "definition": "Sensory ganglia located on the dorsal spinal roots within the vertebral column. (MeSH)", "preferredTerm": "Dorsal Root Ganglion", "submissionValue": "GANGLION, DORSAL ROOT", "synonyms": ["Spinal Ganglion"]}, {"conceptId": "C179825", "definition": "The sensory ganglion within the modiolus of the cochlea.", "preferredTerm": "Spiral Ganglion", "submissionValue": "GANGLION, SPIRAL", "synonyms": ["Cochlear Ganglion"]}, {"conceptId": "C62642", "definition": "Large sensory ganglion of the trigeminal nerve.", "preferredTerm": "Trigeminal Ganglion", "submissionValue": "GANGLION, TRIGEMINAL", "synonyms": ["Gasserian Ganglion"]}, {"conceptId": "C92214", "definition": "A specimen that contains the trigeminal ganglion and the trigeminal nerve.", "preferredTerm": "Trigeminal Ganglion/Trigeminal Nerve", "submissionValue": "GANGLION, TRIGEMINAL/NERVE, TRIGEMINAL"}, {"conceptId": "C77614", "definition": "The contents of the stomach that may include undigested food mixed with juices secreted by the gastric mucosal glands. (NCI)", "preferredTerm": "Gastric Content", "submissionValue": "GASTRIC CONTENTS", "synonyms": ["Stomach Contents"]}, {"conceptId": "C92593", "definition": "A respiratory organ found in aquatic animals that allows for the exchange of dissolved oxygen from water into the blood stream. (NCI)", "preferredTerm": "Gill", "submissionValue": "GILLS"}, {"conceptId": "C32677", "definition": "The soft tissue surrounding the neck of individual teeth as well as covering the alveolar bone. The tissue is fibrous and continuous with the periodontal ligament and mucosal covering. (NCI)", "preferredTerm": "Gingiva", "submissionValue": "GINGIVA", "synonyms": ["Gum"]}, {"conceptId": "C77616", "definition": "A gland producing tears in a third eyelid.", "preferredTerm": "Gland of the Third Eyelid", "submissionValue": "GLAND OF THE THIRD EYELID", "synonyms": ["Nictitans Gland"]}, {"conceptId": "C12666", "definition": "The endocrine glands adjacent to the kidneys that consist of the outer adrenal cortex and the inner adrenal medulla in mammals.", "preferredTerm": "Adrenal Gland", "submissionValue": "GLAND, ADRENAL"}, {"conceptId": "C77955", "definition": "The exocrine glands of the male reproductive system located at the terminal portion of the ductus deferens.", "preferredTerm": "Ampullary Gland", "submissionValue": "GLAND, AMPULLARY"}, {"conceptId": "C125895", "definition": "Apocrine gland located in the wall of the anal sac.", "preferredTerm": "Experimental Organism Anal Sac Gland", "submissionValue": "GLAND, ANAL SAC"}, {"conceptId": "C13010", "definition": "A compound tubular gland located in the submucosa of the proximal part of the duodenum.", "preferredTerm": "Brunner's Gland", "submissionValue": "GLAND, BRUNNER'S"}, {"conceptId": "C32395", "definition": "The exocrine glands of the male reproductive system located at the base of the penis.", "preferredTerm": "Cowper Gland", "submissionValue": "GLAND, BULBOURETHRAL", "synonyms": ["Cowper's Gland"]}, {"conceptId": "C77610", "definition": "Superficial sebaceous glands located around the anus and contain fat. (Textbook of Small Animal Surgery - Volume 1. Slatter D (Ed.) (2003) Elsevier Health Sciences, Philadelpha PA)", "preferredTerm": "Circumanal Gland", "submissionValue": "GLAND, CIRCUMANAL"}, {"conceptId": "C77617", "definition": "Exocrine gland of the female reproductive system located under the skin adjacent to the vulva.", "preferredTerm": "Clitoral Gland", "submissionValue": "GLAND, CLITORAL"}, {"conceptId": "C77618", "definition": "The portion of the prostate, which when present, is adjacent to the seminal vesicles.", "preferredTerm": "Coagulating Gland", "submissionValue": "GLAND, COAGULATING"}, {"conceptId": "C33842", "definition": "The glands present in the endometrium or inner layer of the uterus.", "preferredTerm": "Uterine Gland", "submissionValue": "GLAND, ENDOMETRIAL"}, {"conceptId": "C77619", "definition": "The accessory sebaceous glands of the orbit.", "preferredTerm": "Harderian Gland", "submissionValue": "GLAND, HARDERIAN"}, {"conceptId": "C12346", "definition": "The exocrine glands that produce the watery serous component of tears.", "preferredTerm": "Lacrimal Gland", "submissionValue": "GLAND, LACRIMAL"}, {"conceptId": "C12367", "definition": "The exocrine glands of the mammae that produce milk in females, and are composed of lobules, alveolar ducts and alveoli.", "preferredTerm": "Mammary Gland", "submissionValue": "GLAND, MAMMARY"}, {"conceptId": "C33075", "definition": "A sebaceous gland in the eyelid that produces meibum.", "preferredTerm": "Meibomian Gland", "submissionValue": "GLAND, MEIBOMIAN"}, {"conceptId": "C12765", "definition": "Endocrine gland, usually in close proximity to the thyroid gland, that produces parathyroid hormone.", "preferredTerm": "Parathyroid Gland", "submissionValue": "GLAND, PARATHYROID"}, {"conceptId": "C77620", "definition": "Deep sebaceous glands located around the anus and contain no fat. (Textbook of Small Animal Surgery - Volume 1. Slatter D (Ed.) (2003) Elsevier Health Sciences, Philadelpha PA)", "preferredTerm": "Perianal Gland", "submissionValue": "GLAND, PERIANAL"}, {"conceptId": "C12398", "definition": "A small endocrine gland that arises from the central posterior aspect of the diencephalon.", "preferredTerm": "Pineal Gland", "submissionValue": "GLAND, PINEAL", "synonyms": ["Pineal Body"]}, {"conceptId": "C12399", "definition": "A small endocrine gland extending from the hypothalamus at the base of the brain.", "preferredTerm": "Pituitary Gland", "submissionValue": "GLAND, PITUITARY", "synonyms": ["Hypophysis", "Hypophysis Cerebri"]}, {"conceptId": "C79432", "definition": "Exocrine glands of the male reproductive system located adjacent to the prepuce.", "preferredTerm": "Preputial Gland", "submissionValue": "GLAND, PREPUTIAL"}, {"conceptId": "C117978", "definition": "A specimen that contains either the preputial or clitoral glands.", "preferredTerm": "Preputial Gland/Clitoral Gland", "submissionValue": "GLAND, PREPUTIAL/GLAND, CLITORAL"}, {"conceptId": "C77622", "definition": "A lobe of the prostate gland located on the dorsolateral aspect of the proximal urethra.", "preferredTerm": "Dorsolateral Prostate Gland", "submissionValue": "GLAND, PROSTATE DORSOLATERAL"}, {"conceptId": "C77623", "definition": "A lobe of the prostate gland located on the ventral aspect of the proximal urethra.", "preferredTerm": "Ventral Prostate Gland", "submissionValue": "GLAND, PROSTATE VENTRAL"}, {"conceptId": "C12410", "definition": "The male reproductive accessory gland that produces prostatic fluid and is located adjacent to or around the urethra distal to the urinary bladder in mammals.", "preferredTerm": "Prostate Gland", "submissionValue": "GLAND, PROSTATE"}, {"conceptId": "C77670", "definition": "A specimen that contains the prostate and seminal vesicles.", "preferredTerm": "Prostate/Seminal Vesicles", "submissionValue": "GLAND, PROSTATE/GLAND, SEMINAL VESICLE"}, {"conceptId": "C12426", "definition": "Any number of exocrine glands that secrete saliva into the oral cavity.", "preferredTerm": "Salivary Gland", "submissionValue": "GLAND, SALIVARY"}, {"conceptId": "C33141", "definition": "Salivary glands that produce and secrete a saliva made up exclusively of mucous. (NCI)", "preferredTerm": "Mucous Salivary Gland", "submissionValue": "GLAND, SALIVARY, MUCOUS"}, {"conceptId": "C12427", "definition": "The salivary gland located adjacent to the ear.", "preferredTerm": "Parotid Gland", "submissionValue": "GLAND, SALIVARY, PAROTID"}, {"conceptId": "C33539", "definition": "Salivary glands that produce and secrete a saliva made up exclusively of a pale-yellow transparent fluid containing amylase. (NCI)", "preferredTerm": "Serous Salivary Gland", "submissionValue": "GLAND, SALIVARY, SEROUS"}, {"conceptId": "C12234", "definition": "The salivary gland located under the tongue in the floor of the oral cavity or adjacent to the submandibular salivary gland.", "preferredTerm": "Sublingual Salivary Gland", "submissionValue": "GLAND, SALIVARY, SUBLINGUAL"}, {"conceptId": "C12233", "definition": "The salivary gland located adjacent to the mandible.", "preferredTerm": "Submandibular Gland", "submissionValue": "GLAND, SALIVARY, SUBMANDIBULAR", "synonyms": ["Gland, Salivary, Mandibular", "Submaxillary Gland"]}, {"conceptId": "C92215", "definition": "A specimen that contains the submandibular and sublingual salivary glands.", "preferredTerm": "Submandibular Gland/Sublingual Gland", "submissionValue": "GLAND, SALIVARY, SUBMANDIBULAR/GLAND, SALIVARY, SUBLINGUAL"}, {"conceptId": "C77624", "definition": "The salivary gland located adjacent to the zygomatic arch.", "preferredTerm": "Zygomatic Gland", "submissionValue": "GLAND, SALIVARY, ZYGOMATIC"}, {"conceptId": "C33519", "definition": "Small glands located within the skin that are usually associated with the hair follicle.", "preferredTerm": "Sebaceous Gland", "submissionValue": "GLAND, SEBACEOUS"}, {"conceptId": "C12787", "definition": "A mammalian male reproductive accessory gland located adjacent to the urinary bladder and proximal to the prostate.", "preferredTerm": "Seminal Vesicle", "submissionValue": "GLAND, SEMINAL VESICLE", "synonyms": ["Seminal Sacs"]}, {"conceptId": "C92216", "definition": "A specimen that contains a seminal vesicle and coagulating gland.", "preferredTerm": "Seminal Vesicle/Coagulating Gland", "submissionValue": "GLAND, SEMINAL VESICLE/GLAND, COAGULATING"}, {"conceptId": "C12400", "definition": "Endocrine gland(s) adjacent to the trachea in mammals that produce thyroxine and other hormones.", "preferredTerm": "Thyroid Gland", "submissionValue": "GLAND, THYROID"}, {"conceptId": "C77667", "definition": "A specimen that contains the thyroid and parathyroid glands.", "preferredTerm": "Thyroid/Parathyroid", "submissionValue": "GLAND, THYROID/GLAND, PARATHYROID"}, {"conceptId": "C33521", "definition": "A sebaceous gland in the eyelid that produces an oily substance that lubricates the eyelashes.", "preferredTerm": "Sebaceous Gland of the Eyelash", "submissionValue": "GLAND, ZEIS"}, {"conceptId": "C77954", "definition": "A sebaceous gland located at the base of the rodent external ear.", "preferredTerm": "Zymbal Gland", "submissionValue": "GLAND, ZYMBAL"}, {"conceptId": "C12725", "definition": "A reproductive organ that produces gametes.", "preferredTerm": "Gonad", "submissionValue": "GONAD"}, {"conceptId": "C77639", "definition": "The uterus during pregnancy. (NCI)", "preferredTerm": "Gravid Uterus", "submissionValue": "GRAVID UTERUS"}, {"conceptId": "C3824", "definition": "A localized pathological or traumatic structural change, damage, deformity, or discontinuity of tissue, organ, or body part. (NCI)", "preferredTerm": "Lesion", "submissionValue": "GROSS LESION"}, {"conceptId": "C12936", "definition": "Lymphoid tissue located in the mucosa of the digestive tract.", "preferredTerm": "Gut-Associated Lymphoid Tissue", "submissionValue": "GUT-ASSOCIATED LYMPHOID TISSUE", "synonyms": ["GALT"]}, {"conceptId": "C32705", "definition": "The filamentous outgrowth of the epidermis. (NCI)", "preferredTerm": "Hair", "submissionValue": "HAIR", "synonyms": ["Hair"]}, {"conceptId": "C32712", "definition": "The distal portion of the upper extremity. It consists of the carpus, metacarpus, and digits. (NCI)", "preferredTerm": "Hand", "submissionValue": "HAND", "synonyms": ["Hand"]}, {"conceptId": "C12419", "definition": "The portion of the body containing the mouth, the brain and multiple sensory organs.", "preferredTerm": "Head", "submissionValue": "HEAD"}, {"conceptId": "C12727", "definition": "A hollow muscular organ which receives the blood from the veins and pumps it into the arteries.", "preferredTerm": "Heart", "submissionValue": "HEART"}, {"conceptId": "C41168", "definition": "Any of the tissues that contain hematopoietic cells and/or lymphocytes and immune system cells.", "preferredTerm": "Hematopoietic and Lymphoid Tissue", "submissionValue": "HEMOLYMPHORETICULAR TISSUE", "synonyms": ["Hematopoietic And Lymphoid Tissue"]}, {"conceptId": "C77625", "definition": "The posterior, rear or lower limb of an animal.", "preferredTerm": "Hind Limb", "submissionValue": "HINDLIMB"}, {"conceptId": "C77626", "definition": "The keratinized, outer portion of the foot of a ungulate mammal.", "preferredTerm": "Hoof Wall", "submissionValue": "HOOF WALL"}, {"conceptId": "C178001", "definition": "The segment of the gastrointestinal tract where the terminal ileum transitions to the cecum, and where the ileocecal sphincter regulates the movement of chyme from the small intestine into the large intestine. (NCI)", "preferredTerm": "Ileocecal Junction", "submissionValue": "ILEOCECAL JUNCTION", "synonyms": ["Ileocecal Region"]}, {"conceptId": "C179826", "definition": "Transitional area involving the terminal ileum, cecum and beginning of the colon.", "preferredTerm": "Ileocecocolic Region", "submissionValue": "ILEOCECOCOLIC REGION", "synonyms": ["Ileocecocolic Junction", "Ileocolocaecal Area"]}, {"conceptId": "C12499", "definition": "The innermost portion of the ear that contains the vestibule, cochlea and semicircular canals.", "preferredTerm": "Inner Ear", "submissionValue": "INNER EAR", "synonyms": ["Internal Ear", "Labyrinth"]}, {"conceptId": "C32874", "definition": "The wall that separates the left and right ventricles of the heart. (NCI)", "preferredTerm": "Interventricular Septum", "submissionValue": "INTERVENTRICULAR SEPTUM", "synonyms": ["Interventricular Septal Wall", "Ventricular Septum"]}, {"conceptId": "C49571", "definition": "Spongy discs located between the vertebrae of the spinal column; composed of the outer annulus fibrosus and inner nucleus pulposus. (NCI)", "preferredTerm": "Intervertebral Disc", "submissionValue": "INTERVERTEBRAL DISC"}, {"conceptId": "C12736", "definition": "The portion of the gastrointestinal tract that includes the small and large intestines.", "preferredTerm": "Intestine", "submissionValue": "INTESTINE"}, {"conceptId": "C13044", "definition": "The connection point between two bones or skeletal elements. The joint may be fixed or movable. (NCI)", "preferredTerm": "Joint", "submissionValue": "JOINT", "synonyms": ["Articulation", "Joint"]}, {"conceptId": "C32264", "definition": "A joint formed between carpal bones. (NCI)", "preferredTerm": "Carpal Joint", "submissionValue": "JOINT, CARPUS"}, {"conceptId": "C32497", "definition": "A joint involving the humerus, radius and ulna bones.", "preferredTerm": "Elbow Joint", "submissionValue": "JOINT, ELBOW", "synonyms": ["Elbow", "Elbow Joint"]}, {"conceptId": "C32898", "definition": "The joint connecting the lower part of the femur with the upper part of the tibia.", "preferredTerm": "Knee Joint", "submissionValue": "JOINT, FEMOROTIBIAL", "synonyms": ["Femorotibial Joint", "Joint, Stifle", "Knee", "Tibiofemoral Joint"]}, {"conceptId": "C32742", "definition": "A ball-and-socket joint between the head of the femur and the acetabulum. (NCI)", "preferredTerm": "Hip Joint", "submissionValue": "JOINT, HIP", "synonyms": ["Coxofemoral Joint", "Hip Joint"]}, {"conceptId": "C111308", "definition": "The joint connecting the scapula and the proximal portion of the humerus.", "preferredTerm": "Scapulohumeral Joint", "submissionValue": "JOINT, SCAPULOHUMERAL"}, {"conceptId": "C33735", "definition": "A joint formed by the union of tarsal bones.", "preferredTerm": "Tarsal Joint", "submissionValue": "JOINT, TARSUS"}, {"conceptId": "C12415", "definition": "The organs of the urinary tract located in the retroperitoneal cavity adjacent to the spine and composed of the renal cortex and the renal medulla.", "preferredTerm": "Kidney", "submissionValue": "KIDNEY"}, {"conceptId": "C12227", "definition": "The junction of the upper and lower lips at the corner of the mouth. (NCI)", "preferredTerm": "Commissure of the Lip", "submissionValue": "LABIAL JUNCTION"}, {"conceptId": "C12306", "definition": "One of the two longitudinal folds of skin that form the lateral boundary of the vulva.", "preferredTerm": "Labium Majus", "submissionValue": "LABIUM MAJUS"}, {"conceptId": "C12307", "definition": "One of the two longitudinal folds of skin located between the labia majora.", "preferredTerm": "Labium Minus", "submissionValue": "LABIUM MINUS"}, {"conceptId": "C92439", "definition": "The ascending colon of the horse. (NCI)", "preferredTerm": "Large Colon", "submissionValue": "LARGE COLON"}, {"conceptId": "C12379", "definition": "The avillous section of the intestine composed of crypts and extending from the terminal small intestine to the external orifice.", "preferredTerm": "Large Intestine", "submissionValue": "LARGE INTESTINE", "synonyms": ["Large Bowel"]}, {"conceptId": "C43362", "definition": "The distal orifice of the digestive tract located between the rectum and the external surface of the body, comprising glandular, transitional, and squamous epithelium.", "preferredTerm": "Anus", "submissionValue": "LARGE INTESTINE, ANUS"}, {"conceptId": "C12380", "definition": "A pouch-like tissue attached to the cecum, which may exist as a diverticulum.", "preferredTerm": "Appendix", "submissionValue": "LARGE INTESTINE, APPENDIX"}, {"conceptId": "C12381", "definition": "The pouch-like portion of the proximal large intestine opening into the colon.", "preferredTerm": "Cecum", "submissionValue": "LARGE INTESTINE, CECUM"}, {"conceptId": "C12382", "definition": "The portion of the large intestine which extends from the cecum (or small intestine in animals that don't have a cecum) to the rectum.", "preferredTerm": "Colon", "submissionValue": "LARGE INTESTINE, COLON"}, {"conceptId": "C12390", "definition": "The terminal portion of the large intestine extending from the terminus of the colon to the anus or anal canal.", "preferredTerm": "Rectum", "submissionValue": "LARGE INTESTINE, RECTUM"}, {"conceptId": "C92217", "definition": "A specimen that contains the rectum and anus.", "preferredTerm": "Rectum/Anus", "submissionValue": "LARGE INTESTINE, RECTUM/LARGE INTESTINE, ANUS"}, {"conceptId": "C122233", "definition": "An accessory mucosal membranous diverticulum of the laryngeal region, found in certain nonhuman primates.", "preferredTerm": "Laryngeal Pouch", "submissionValue": "LARYNGEAL POUCH"}, {"conceptId": "C12420", "definition": "The cartilaginous structure of the respiratory tract between the pharynx and the trachea.", "preferredTerm": "Larynx", "submissionValue": "LARYNX"}, {"conceptId": "C13046", "definition": "Band of fibrous tissue connecting bone to bone or cartilage to bone thereby supporting or strengthening a joint. (NCI)", "preferredTerm": "Ligament", "submissionValue": "LIGAMENT", "synonyms": ["Ligament"]}, {"conceptId": "C12429", "definition": "A jointed extremity of the upper/thoracic or lower/pelvic regions.", "preferredTerm": "Limb", "submissionValue": "LIMB", "synonyms": ["Extremity"]}, {"conceptId": "C12220", "definition": "Fleshy fold which surrounds the opening of the mouth. (NCI)", "preferredTerm": "Lip", "submissionValue": "LIP", "synonyms": ["Lip", "Vermillion of the Lip"]}, {"conceptId": "C12392", "definition": "An abdominal organ that has variable lobation which are composed mainly of hepatic lobules.", "preferredTerm": "Liver", "submissionValue": "LIVER"}, {"conceptId": "C77669", "definition": "A specimen that contains the liver and gallbladder.", "preferredTerm": "Liver/Gallbladder", "submissionValue": "LIVER/GALLBLADDER"}, {"conceptId": "C12468", "definition": "A thoracic organ that has variable lobation and is the primary respiratory organ of mammals.", "preferredTerm": "Lung", "submissionValue": "LUNG"}, {"conceptId": "C92218", "definition": "A specimen that contains lung and bronchial tissues.", "preferredTerm": "Lung/Bronchus", "submissionValue": "LUNG/BRONCHUS"}, {"conceptId": "C129005", "definition": "A tissue sample that contains the lung, bronchus, trachea, and larynx.", "preferredTerm": "Lung/Bronchus/Trachea/Larynx", "submissionValue": "LUNG/BRONCHUS/TRACHEA/LARYNX"}, {"conceptId": "C12745", "definition": "Secondary lymphoid organ associated with lymphatic vessels and consisting of an outer cortex, inner medulla and sinuses.", "preferredTerm": "Lymph Node", "submissionValue": "LYMPH NODE", "synonyms": ["Lymphatic Gland"]}, {"conceptId": "C12904", "definition": "Lymph node(s) in the axillary region.", "preferredTerm": "Axillary Lymph Node", "submissionValue": "LYMPH NODE, AXILLARY"}, {"conceptId": "C92221", "definition": "Lymph node(s) adjacent to the brachial vein.", "preferredTerm": "Brachial Lymph Node", "submissionValue": "LYMPH NODE, BRACHIAL"}, {"conceptId": "C32232", "definition": "Lymph node(s) adjacent to the bronchi.", "preferredTerm": "Bronchial Lymph Node", "submissionValue": "LYMPH NODE, BRONCHIAL"}, {"conceptId": "C32298", "definition": "Lymph node(s) in the cervical region, or neck.", "preferredTerm": "Cervical Lymph Node", "submissionValue": "LYMPH NODE, CERVICAL"}, {"conceptId": "C33659", "definition": "Lymph node(s) in the side of the neck, cranial to the scapula and lateral to the deep cervical lymph node.", "preferredTerm": "Superficial Cervical Lymph Node", "submissionValue": "LYMPH NODE, CERVICAL, SUPERFICIAL"}, {"conceptId": "C150905", "definition": "The lymph node or group of lymph nodes that drain a particular anatomic site or organ.", "preferredTerm": "Draining Lymph Node", "submissionValue": "LYMPH NODE, DRAINING"}, {"conceptId": "C92222", "definition": "Lymph node(s) adjacent to the stomach.", "preferredTerm": "Gastric Lymph Node", "submissionValue": "LYMPH NODE, GASTRIC"}, {"conceptId": "C77640", "definition": "Lymph node(s) adjacent to the liver.", "preferredTerm": "Hepatic Lymph Node", "submissionValue": "LYMPH NODE, HEPATIC"}, {"conceptId": "C77653", "definition": "Lymph node(s) adjacent to the ileocecocolic junction.", "preferredTerm": "Ileocecocolic Lymph Node", "submissionValue": "LYMPH NODE, ILEOCECOCOLIC"}, {"conceptId": "C32761", "definition": "Lymph node(s) adjacent to the iliac vessels in the iliosacral region and cranial to the iliofemoral lymph node.", "preferredTerm": "Iliac Lymph Node", "submissionValue": "LYMPH NODE, ILIAC"}, {"conceptId": "C32801", "definition": "Lymph node(s) in the inguinal region.", "preferredTerm": "Inguinal Lymph Node", "submissionValue": "LYMPH NODE, INGUINAL"}, {"conceptId": "C77652", "definition": "Lymph node(s) in the intercostal space.", "preferredTerm": "Intercostal Lymph Node", "submissionValue": "LYMPH NODE, INTERCOSTAL"}, {"conceptId": "C77643", "definition": "Lymph node(s) adjacent to the lumbar vertebral column.", "preferredTerm": "Paraaortic Lymph Node", "submissionValue": "LYMPH NODE, LUMBAR", "synonyms": ["Lymph Node, Para-Aortic"]}, {"conceptId": "C32853", "definition": "Lymph node(s) in or adjacent to the mammary gland.", "preferredTerm": "Internal Mammary Lymph Node", "submissionValue": "LYMPH NODE, MAMMARY GLAND"}, {"conceptId": "C77650", "definition": "Lymph node(s) adjacent to the mandible.", "preferredTerm": "Submandibular Lymph Node", "submissionValue": "LYMPH NODE, MANDIBULAR", "synonyms": ["Lymph Node, Submandibular"]}, {"conceptId": "C33073", "definition": "Lymph node(s) in the mediastinal region.", "preferredTerm": "Mediastinal Lymph Node", "submissionValue": "LYMPH NODE, MEDIASTINAL"}, {"conceptId": "C77641", "definition": "Lymph node(s) in or adjacent to the mesentery.", "preferredTerm": "Mesenteric Lymph Node", "submissionValue": "LYMPH NODE, MESENTERIC"}, {"conceptId": "C77642", "definition": "Lymph node(s) in or adjacent to the pancreas.", "preferredTerm": "Pancreatic Lymph Node", "submissionValue": "LYMPH NODE, PANCREATIC"}, {"conceptId": "C33278", "definition": "Lymph node(s) in or adjacent to the parotid gland.", "preferredTerm": "Parotid Gland Lymph Node", "submissionValue": "LYMPH NODE, PAROTID", "synonyms": ["Parotid Gland Lymph Node"]}, {"conceptId": "C53146", "definition": "Lymph node(s) adjacent to the femorotibial joint.", "preferredTerm": "Popliteal Lymph Node", "submissionValue": "LYMPH NODE, POPLITEAL"}, {"conceptId": "C77645", "definition": "Lymph node(s) adjacent to the portal vein.", "preferredTerm": "Portal Lymph Node", "submissionValue": "LYMPH NODE, PORTAL", "synonyms": ["Periportal Lymph Node"]}, {"conceptId": "C49018", "definition": "Lymph node(s) that drains the lymph from a region of interest.", "preferredTerm": "Regional Lymph Node", "submissionValue": "LYMPH NODE, REGIONAL"}, {"conceptId": "C77646", "definition": "Lymph node(s) adjacent to the hilar region of the kidney.", "preferredTerm": "Renal Lymph Node", "submissionValue": "LYMPH NODE, RENAL"}, {"conceptId": "C77649", "definition": "Lymph node(s) in the retropharyngeal space.", "preferredTerm": "Retropharyngeal Lymph Node", "submissionValue": "LYMPH NODE, RETROPHARYNGEAL", "synonyms": ["Suprapharyngeal Lymph Node"]}, {"conceptId": "C77647", "definition": "Lymph node(s) in the sacral region.", "preferredTerm": "Sacral Lymph Node", "submissionValue": "LYMPH NODE, SACRAL"}, {"conceptId": "C92594", "definition": "Lymph node(s) in the inguinofemoral region.", "preferredTerm": "Subiliac Lymph Node", "submissionValue": "LYMPH NODE, SUBILIAC"}, {"conceptId": "C92434", "definition": "Lymph node(s) adjacent to the tongue in the floor of the oral cavity.", "preferredTerm": "Sublingual Lymph Node", "submissionValue": "LYMPH NODE, SUBLINGUAL"}, {"conceptId": "C77651", "definition": "Lymph node(s) adjacent to the bifurcation of the trachea.", "preferredTerm": "Tracheobronchial Lymph Node", "submissionValue": "LYMPH NODE, TRACHEOBRONCHIAL"}, {"conceptId": "C34808", "definition": "A benign or malignant pathologic structure in any part of the body resulting from cystic changes or accumulation of inflammatory or neoplastic cells.", "preferredTerm": "Mass", "submissionValue": "MASS"}, {"conceptId": "C12748", "definition": "The central region of the thoracic cavity of mammals containing a group of organs surrounded by loose connective tissue, which separates the two pleural sacs.", "preferredTerm": "Mediastinum", "submissionValue": "MEDIASTINUM"}, {"conceptId": "C77657", "definition": "A translucent membrane present in the eye of some animals, also called the third eyelid.", "preferredTerm": "Nictitating Membrane", "submissionValue": "MEMBRANE, NICTITATING"}, {"conceptId": "C12348", "definition": "Any one of three membranes that surround the brain and spinal cord. (NCI)", "preferredTerm": "Meninges", "submissionValue": "MENINGES"}, {"conceptId": "C33096", "definition": "Cartilaginous material that serves as a cushion between the tuberosities of the femur and the tibia.", "preferredTerm": "Meniscus", "submissionValue": "MENISCUS"}, {"conceptId": "C33097", "definition": "A meniscus located towards the outer aspect of the femorotibial joint.", "preferredTerm": "Meniscus Lateralis", "submissionValue": "MENISCUS, LATERAL"}, {"conceptId": "C33098", "definition": "A meniscus located towards the inner aspect of the knee/stifle joint.", "preferredTerm": "Meniscus Medialis", "submissionValue": "MENISCUS, MEDIAL"}, {"conceptId": "C33103", "definition": "A double layer of peritoneum that attaches to the wall of the abdominal cavity and supports the small intestines.", "preferredTerm": "Mesentery", "submissionValue": "MESENTERY"}, {"conceptId": "C92435", "definition": "A specimen that contains mesentery and peritoneum.", "preferredTerm": "Mesentery/Peritoneum", "submissionValue": "MESENTERY/PERITONEUM"}, {"conceptId": "C92440", "definition": "The peritoneal fold that covers and attaches the ovary to the broad ligament. (NCI)", "preferredTerm": "Mesovarium", "submissionValue": "MESOVARIAN LIGAMENTS"}, {"conceptId": "C12274", "definition": "The part of the ear including the eardrum and ossicles.", "preferredTerm": "Middle Ear", "submissionValue": "MIDDLE EAR"}, {"conceptId": "C77658", "definition": "The fluid that remains after removing the fat and casein from the milk. (NCI)", "preferredTerm": "Milk Serum", "submissionValue": "MILK SERUM"}, {"conceptId": "C13257", "definition": "A liquid produced by the mammary gland.", "preferredTerm": "Breast Milk", "submissionValue": "MILK"}, {"conceptId": "C12505", "definition": "The mucosal membranes located on the inside of the cheek, in the buccal cavity. (NCI)", "preferredTerm": "Buccal Mucosa", "submissionValue": "MUCOSA, BUCCAL"}, {"conceptId": "C33205", "definition": "The mucosal membranes that line the nasal cavity.", "preferredTerm": "Olfactory Mucosa", "submissionValue": "MUCOSA, NASAL"}, {"conceptId": "C77637", "definition": "The mucosal membranes that line the oral cavity.", "preferredTerm": "Oral Mucosa", "submissionValue": "MUCOSA, ORAL"}, {"conceptId": "C13259", "definition": "The thick fluid secreted by the mucus glands in the aerodigestive tract and the vagina. (NCI)", "preferredTerm": "Mucus", "submissionValue": "MUCUS"}, {"conceptId": "C32040", "definition": "Any muscle of the abdominal wall.", "preferredTerm": "Abdominal Muscle", "submissionValue": "MUSCLE, ABDOMINAL"}, {"conceptId": "C53039", "definition": "A group of muscles generally extending from the pubis to the femur; primary function is adduction of the thigh.", "preferredTerm": "Adductor Group of the Leg", "submissionValue": "MUSCLE, ADDUCTOR"}, {"conceptId": "C32200", "definition": "A muscle of the proximal arm/forelimb, in general extending from the scapula to the radius and adjacent fascia; primary function is flexion of the elbow joint and, in some species, also functions in supination of the antebrachium.", "preferredTerm": "Biceps Brachii", "submissionValue": "MUSCLE, BICEPS BRACHII"}, {"conceptId": "C53147", "definition": "A muscle in the thigh, in general extending from the ischial tuberosity and posterior femur to the fibula; primary function is to extend the femorotibial joint.", "preferredTerm": "Biceps Femoris", "submissionValue": "MUSCLE, BICEPS FEMORIS"}, {"conceptId": "C112234", "definition": "Paired superficial muscles on the midline of the perineum, covering the bulb of the penis in males and the vestibular bulb in females.", "preferredTerm": "Bulbospongiosus", "submissionValue": "MUSCLE, BULBOSPONGIOSUS", "synonyms": ["Bulbocavernosus"]}, {"conceptId": "C12702", "definition": "A musculotendinous sheet separating the thoracic cavity from the abdominal cavity.", "preferredTerm": "Diaphragm", "submissionValue": "MUSCLE, DIAPHRAGM"}, {"conceptId": "C33688", "definition": "A muscle of the eye, in general extending from the annulus of Zinn to the upper, medial side of the orbit; primary function is abduction, depression and internal rotation of the eye.", "preferredTerm": "Superior Oblique Muscle", "submissionValue": "MUSCLE, DORSAL OBLIQUE", "synonyms": ["Superior Oblique Muscle"]}, {"conceptId": "C33694", "definition": "A muscle of the eye, in general extending from the annulus of Zinn to the dorsal aspect of the eye at the annulus tendineus; primary function is depression of the eyeball.", "preferredTerm": "Superior Rectus Muscle", "submissionValue": "MUSCLE, DORSAL RECTUS", "synonyms": ["Superior Rectus Muscle"]}, {"conceptId": "C52902", "definition": "A group of three paired epaxial muscle bundles (iliocostalis, longissimus, and spinalis) extending along and lateral to the spinous processes of the cervical, thoracic, and lumbar vertebrae; primary function is extension and rotation of the spine.", "preferredTerm": "Erector Spinae", "submissionValue": "MUSCLE, ERECTOR SPINAE", "synonyms": ["Extensor Spinae", "Sacrospinalis Muscle"]}, {"conceptId": "C52918", "definition": "A muscle extending from the lateral surface of the tibia to the digits; primary function is the extension of the digits and flexion of the tarsal joint.", "preferredTerm": "Extensor Digitorum Longus", "submissionValue": "MUSCLE, EXTENSOR DIGITORUM LONGUS", "synonyms": ["Long Digital Extensor Muscle"]}, {"conceptId": "C33199", "definition": "A group of muscles in the orbit extending from the posterior orbit to the eye and upper eyelid; primary function is the movement of the eye and retraction of the upper eyelid.", "preferredTerm": "Extraocular Muscle", "submissionValue": "MUSCLE, EXTRAOCULAR", "synonyms": ["Oculomotor Muscle"]}, {"conceptId": "C32666", "definition": "A bipennate muscle extending from the femoral condyles to the calcaneus; primary function is the extension of the tarsal joint and flexion of the femorotibial joint.", "preferredTerm": "Gastrocnemius Muscle", "submissionValue": "MUSCLE, GASTROCNEMIUS"}, {"conceptId": "C78205", "definition": "A group of three muscles (gluteus maximus, gluteus medius, gluteus minimus) extending from the ilium and sacrum to the femur; primary function is extension and abduction of the hip joint.", "preferredTerm": "Gluteal Muscle", "submissionValue": "MUSCLE, GLUTEUS"}, {"conceptId": "C32824", "definition": "A group of muscles extending from one rib to the adjacent rib; primary function is movement of the thoracic wall during inspiration and expiration.", "preferredTerm": "Intercostal Muscle", "submissionValue": "MUSCLE, INTERCOSTAL"}, {"conceptId": "C32945", "definition": "A muscle of the eye, in general extending from the annulus of Zinn to the lateral aspect of the anterior portion of the eye at the annulus tendineus; primary function is abduction of the eye.", "preferredTerm": "Lateral Rectus Muscle", "submissionValue": "MUSCLE, LATERAL RECTUS"}, {"conceptId": "C33150", "definition": "A muscle of the back, in general extending from the thoracolumbar vertebrae and scapula to the proximal humerus; primary function is adduction, extension, and medial rotation of the shoulder joint.", "preferredTerm": "Musculus Latissimus Dorsi", "submissionValue": "MUSCLE, LATISSIMUS", "synonyms": ["Musculus Latissimus Dorsi"]}, {"conceptId": "C32984", "definition": "A group of muscles, in general extending from the inner surfaces of the ischium and pubis to the coccyx/coccygeal vertebrae; primary function is downward and lateral movement of the tail in tailed species, and to support the pelvic cavity.", "preferredTerm": "Levator Ani", "submissionValue": "MUSCLE, LEVATOR ANI"}, {"conceptId": "C112430", "definition": "A specimen that contains the bulbospongiosus and levator ani muscles.", "preferredTerm": "Levator Ani/Bulbospongiosus", "submissionValue": "MUSCLE, LEVATOR ANI/BULBOSPONGIOSUS"}, {"conceptId": "C13074", "definition": "A muscle extending from the zygomatic arch to the lateral surface of mandibular ramus; primary function is elevation of the mandible (closing of the mouth).", "preferredTerm": "Masseter Muscle", "submissionValue": "MUSCLE, MASSETER"}, {"conceptId": "C33068", "definition": "A muscle of the eye, in general extending from the annulus of Zinn to the medial aspect of the anterior portion of the eye at the annulus tendineus; primary function is adduction of the eye.", "preferredTerm": "Medial Rectus Muscle", "submissionValue": "MUSCLE, MEDIAL RECTUS"}, {"conceptId": "C33286", "definition": "A group of muscles on the exterior of the thorax, in general extending from the sternum to the humerus; primary function is movement of the upper forelimb.", "preferredTerm": "Pectoralis Muscle", "submissionValue": "MUSCLE, PECTORALIS"}, {"conceptId": "C117979", "definition": "A superficial muscle in primates between the soleus and the gastrocnemius; primary function is flexion of the tarsus and femorotibial joint.", "preferredTerm": "Plantaris Muscle", "submissionValue": "MUSCLE, PLANTARIS"}, {"conceptId": "C33422", "definition": "A group of muscles on the abdominal spine, in general extending from the lumbar vertebrae to the femur; the primary function is flexion of the hip joint.", "preferredTerm": "Psoas Muscle", "submissionValue": "MUSCLE, PSOAS"}, {"conceptId": "C33441", "definition": "A group of muscles in the thigh, in general extending from the pelvis to the patella and tibia; primary function is extension of the femorotibial joint.", "preferredTerm": "Quadriceps Muscle of the Thigh", "submissionValue": "MUSCLE, QUADRICEPS FEMORIS"}, {"conceptId": "C53175", "definition": "A muscle in the quadriceps femoris muscle group between the vastus lateralis and vastus medialis and lying on the vastus intermedius; primary function is extension of the femorotibilal joint.", "preferredTerm": "Rectus Femoris", "submissionValue": "MUSCLE, RECTUS FEMORIS"}, {"conceptId": "C53176", "definition": "A muscle of the thigh, in general extends from the ishium to the medial tibia; primary function is the extension of the hip.", "preferredTerm": "Semitendinosus", "submissionValue": "MUSCLE, SEMITENDINOSUS"}, {"conceptId": "C13050", "definition": "Voluntary, striated muscle tissue predominantly associated with the skeleton.", "preferredTerm": "Skeletal Muscle Tissue", "submissionValue": "MUSCLE, SKELETAL"}, {"conceptId": "C12437", "definition": "Primarily involuntary, non-striated muscle tissue of the internal organs and blood vessels.", "preferredTerm": "Smooth Muscle Tissue", "submissionValue": "MUSCLE, SMOOTH"}, {"conceptId": "C53075", "definition": "A muscle in the crus, in general extending from the tibia and fibula to the calcaneous; primary function is plantarflexion of the foot.", "preferredTerm": "Soleus", "submissionValue": "MUSCLE, SOLEUS"}, {"conceptId": "C117980", "definition": "A muscle of the neck extending from the manubrium sterni to the head; primary function is lateral movement of the head and neck.", "preferredTerm": "Sternocephalicus Muscle", "submissionValue": "MUSCLE, STERNOCEPHALICUS"}, {"conceptId": "C53079", "definition": "A muscle of the crus, in general extending from the tibia to the first metatarsal; primary function is rotation of the foot.", "preferredTerm": "Tibialis Cranialis", "submissionValue": "MUSCLE, TIBIALIS CRANIALIS"}, {"conceptId": "C90604", "definition": "A muscle of the proximal arm/forelimb, in general extending from the scapula and humerus to the olecranon of the ulna; primary function is extension of humeroulnar joint.", "preferredTerm": "Triceps Brachii", "submissionValue": "MUSCLE, TRICEPS BRACHII"}, {"conceptId": "C117876", "definition": "A muscle in the quadriceps femoris muscle group between the vastus lateralis and vastus medialis deep to the rectus femoris; primary function is the extension of the femorotibial joint.", "preferredTerm": "Vastus Intermedius Muscle", "submissionValue": "MUSCLE, VASTUS INTERMEDIUS"}, {"conceptId": "C53073", "definition": "A muscle in the quadriceps femoris muscle group lateral to the vastus intermedius; primary function is the extension of the femorotibial joint.", "preferredTerm": "Vastus Lateralis", "submissionValue": "MUSCLE, VASTUS LATERALIS"}, {"conceptId": "C117736", "definition": "A muscle in the quadriceps femoris muscle group medial to the vastus intermedius; primary function is the extension of the femorotibial joint.", "preferredTerm": "Vastus Medialis Muscle", "submissionValue": "MUSCLE, VASTUS MEDIALIS"}, {"conceptId": "C32783", "definition": "A muscle of the eye, in general extending from the maxillary bone to the inferior lateral aspect of the posterior part of the eye; primary function is lateral rotation of the eye.", "preferredTerm": "Inferior Oblique Muscle", "submissionValue": "MUSCLE, VENTRAL OBLIQUE", "synonyms": ["Inferior Oblique Muscle"]}, {"conceptId": "C32790", "definition": "A muscle of the eye, in general extending from the annulus of Zinn to the ventral aspect of the eye at the annulus tendineus; primary function is depression of the eyeball.", "preferredTerm": "Inferior Rectus Muscle", "submissionValue": "MUSCLE, VENTRAL RECTUS", "synonyms": ["Inferior Rectus Muscle"]}, {"conceptId": "C179827", "definition": "A muscle extending from the zygomatic bone to the corners of the mouth/upper lip; primary function is to draw the lip superiorly, posteriorly and laterally.", "preferredTerm": "Zygomaticus Muscle", "submissionValue": "MUSCLE, ZYGOMATICUS"}, {"conceptId": "C49594", "definition": "The bone that protrudes into the nasal cavity from the skull, variably covered by respiratory, transitional or olfactory epithelium.", "preferredTerm": "Nasal Turbinate", "submissionValue": "NASAL TURBINATE", "synonyms": ["Nasal Concha", "Nasoturbinate"]}, {"conceptId": "C139163", "definition": "The nasal turbinate originating from the ethmoidal crest on the inner wall of the nasal bone and extending to the maxilla.", "preferredTerm": "Dorsal Nasal Turbinate", "submissionValue": "NASAL TURBINATE, DORSAL CONCHA"}, {"conceptId": "C139162", "definition": "The nasal turbinates extending from the ethmoidal crest into the nasal cavity.", "preferredTerm": "Ethmoidal Nasal Turbinate", "submissionValue": "NASAL TURBINATE, ETHMOIDAL CONCHA", "synonyms": ["Ethmoturbinate"]}, {"conceptId": "C139164", "definition": "The largest of the ethmoidal nasal turbinates in some species, extending from the ethmoidal crest into the middle of the nasal cavity.", "preferredTerm": "Medial Nasal Turbinate", "submissionValue": "NASAL TURBINATE, MIDDLE CONCHA", "synonyms": ["Media Nasal Concha"]}, {"conceptId": "C139165", "definition": "The nasal turbinate originating from the conchal crest on the medial wall of the maxilla and extending into the nasal cavity.", "preferredTerm": "Ventral Nasal Turbinate", "submissionValue": "NASAL TURBINATE, VENTRAL CONCHA", "synonyms": ["Maxilloturbinate"]}, {"conceptId": "C77659", "definition": "The lymphocytic cell population present in the mucosa of the nasopharyngeal duct.", "preferredTerm": "Nasal-Associated Lymphoid Tissue", "submissionValue": "NASAL-ASSOCIATED LYMPHOID TISSUE", "synonyms": ["NALT"]}, {"conceptId": "C12423", "definition": "The part of the pharynx above the soft palate, which is continuous with the nasal cavity and extends to the oropharynx.", "preferredTerm": "Nasopharynx", "submissionValue": "NASOPHARYNX"}, {"conceptId": "C54024", "definition": "The initial segment of a nerve after it has branched off from the central nervous system.", "preferredTerm": "Nerve Root", "submissionValue": "NERVE ROOT"}, {"conceptId": "C12466", "definition": "A bundle of neuronal fibers that transmits electrochemical impulses encoding sensory and motor information from one body part to another.", "preferredTerm": "Nerve", "submissionValue": "NERVE"}, {"conceptId": "C12682", "definition": "A nerve network originating from spinal nerves in the cervical and thoracic vertebrae and giving rise to multiple nerves that innervate the arm/forelimb.", "preferredTerm": "Brachial Plexus", "submissionValue": "NERVE, BRACHIAL PLEXUS", "synonyms": ["Brachial Plexus"]}, {"conceptId": "C174385", "definition": "A nerve network originating from the spinal nerves in the sacral and caudal vertebrae and giving rise to multiple nerves that innervate the tail. (NCI)", "preferredTerm": "Caudal Plexus Nerve", "submissionValue": "NERVE, CAUDAL PLEXUS"}, {"conceptId": "C12697", "definition": "The cochlear portion of the vestibulocochlear nerve, which transmits auditory sensory impulses to the cochlear nucleus in the brainstem.", "preferredTerm": "Cochlear Nerve", "submissionValue": "NERVE, COCHLEAR", "synonyms": ["Acoustic Nerve", "Auditory Nerve"]}, {"conceptId": "C12700", "definition": "Any of the 12 paired nerves that originate in the brain stem. (NCI)", "preferredTerm": "Cranial Nerve", "submissionValue": "NERVE, CRANIAL"}, {"conceptId": "C12714", "definition": "A cranial nerve extending from the brain stem between the pons and medulla, which innervates the facial muscles, glands and the tongue.", "preferredTerm": "Facial Nerve", "submissionValue": "NERVE, FACIAL", "synonyms": ["Seventh Cranial Nerve"]}, {"conceptId": "C52815", "definition": "A nerve extending from the brachial plexus traveling the length of the arm/thoracic limb, which innervates some flexor muscles of the arm/forelimb and the skin on the palmar aspect of the carpus, metacarpus and digits.", "preferredTerm": "Median Nerve", "submissionValue": "NERVE, MEDIAN"}, {"conceptId": "C12761", "definition": "A cranial nerve extending between the retina and optic chiasma, which innervates the eye.", "preferredTerm": "Optic Nerve", "submissionValue": "NERVE, OPTIC", "synonyms": ["Second Cranial Nerve"]}, {"conceptId": "C12768", "definition": "Any nerve outside the brain or spinal cord that connects with peripheral receptors or effectors. (NCI)", "preferredTerm": "Peripheral Nerve", "submissionValue": "NERVE, PERIPHERAL"}, {"conceptId": "C52814", "definition": "A branch of the sciatic nerve that includes the common, deep, and/or superficial peroneal nerves, which innervates multiple muscles in the distal region of the leg/hindlimb.", "preferredTerm": "Peroneal Nerve", "submissionValue": "NERVE, PERONEAL", "synonyms": ["Nerve, Fibular"]}, {"conceptId": "C92601", "definition": "The portion of the peroneal nerve that extends from the sciatic nerve to the bifurcation of the deep and superficial peroneal nerves.", "preferredTerm": "Common Peroneal Nerve", "submissionValue": "NERVE, PERONEAL, COMMON"}, {"conceptId": "C92602", "definition": "A branch of the common peroneal nerve that runs deep to the superficial peroneal nerve and which predominantly innervates the muscles of the crus and foot/hindfoot.", "preferredTerm": "Deep Peroneal Nerve", "submissionValue": "NERVE, PERONEAL, DEEP"}, {"conceptId": "C92603", "definition": "A branch of the common peroneal nerve that runs superficial to the deep peroneal nerve and which predominantly innervates the skin of the crus and foot/hindfoot.", "preferredTerm": "Superficial Peroneal Nerve", "submissionValue": "NERVE, PERONEAL, SUPERFICIAL"}, {"conceptId": "C77674", "definition": "A nerve arising from the tibial nerve and dividing into the medial and lateral plantar nerves, which innervates the skin and muscles of the plantar region of the foot/hindfoot.", "preferredTerm": "Plantar Nerve", "submissionValue": "NERVE, PLANTAR"}, {"conceptId": "C52812", "definition": "A nerve extending from the brachial plexus traveling the length of the arm/forelimb, which innervates the extensor muscles of the elbow, carpus and phalanges, as well as the skin on the dorsal aspect of the carpus, metacarpus and digits.", "preferredTerm": "Radial Nerve", "submissionValue": "NERVE, RADIAL"}, {"conceptId": "C147511", "definition": "A branch of the femoral nerve traveling the length of the leg/hindlimb, which innervates the sartorius and the skin of the medial aspect of the leg/hindlimb from the knee/stifle joint to the metatarsus.", "preferredTerm": "Saphenous Nerve", "submissionValue": "NERVE, SAPHENOUS"}, {"conceptId": "C52810", "definition": "A nerve arising from the merge of the lumbar and sacral rami in the pelvis and dividing into the common peroneal and tibial nerves, and which innervates the muscles of the thigh.", "preferredTerm": "Sciatic Nerve", "submissionValue": "NERVE, SCIATIC"}, {"conceptId": "C12792", "definition": "A nerve arising from the spinal cord where the dorsal and ventral roots converge and exit through the intervertebral foramen.", "preferredTerm": "Spinal Nerve", "submissionValue": "NERVE, SPINAL", "synonyms": ["Spinal Roots"]}, {"conceptId": "C77675", "definition": "A minor branch of the sciatic nerve that includes the lateral and caudal sural nerves, which innervates the skin of the crus, tarsus and metatarsus.", "preferredTerm": "Sural Nerve", "submissionValue": "NERVE, SURAL"}, {"conceptId": "C52809", "definition": "A branch of the sciatic nerve that divides into the medial and lateral plantar nerves, and which innervates the muscles of the crus and the skin of the tarsus.", "preferredTerm": "Tibial Nerve", "submissionValue": "NERVE, TIBIAL"}, {"conceptId": "C12806", "definition": "A cranial nerve extending from the pons, which innervates the skin, mucous membranes, and masticatory muscles of the head.", "preferredTerm": "Trigeminal Nerve", "submissionValue": "NERVE, TRIGEMINAL", "synonyms": ["Fifth Cranial Nerve"]}, {"conceptId": "C52807", "definition": "A nerve arising from spinal nerves C8, T1 and T2, which innervates the flexor muscles of the arm/forelimb and skin of the arm/forelimb and lateral manus.", "preferredTerm": "Ulnar Nerve", "submissionValue": "NERVE, ULNAR"}, {"conceptId": "C12812", "definition": "A cranial nerve arising from the medulla oblongata, which provides efferent parasympathetic innervation to tissues and viscera in the neck, thorax and abdomen; it also includes somatic and visceral afferent nerve fibers.", "preferredTerm": "Vagus Nerve", "submissionValue": "NERVE, VAGUS", "synonyms": ["Tenth Cranial Nerve"]}, {"conceptId": "C12299", "definition": "The protuberance in the skin where the ducts of the mammary gland open.", "preferredTerm": "Nipple", "submissionValue": "NIPPLE"}, {"conceptId": "C12756", "definition": "A structure of special sense serving as an organ of the sense of smell and as an entrance to the respiratory tract. (NCI)", "preferredTerm": "Nose", "submissionValue": "NOSE", "synonyms": ["Nose"]}, {"conceptId": "C13197", "definition": "A body within the cell, surrounded by a membrane, within which lie the chromosomes, one or more nucleoli, combined with proteins, and exhibits mitosis. (NCI)", "preferredTerm": "Nucleus", "submissionValue": "NUCLEUS", "synonyms": ["Cell Nucleus"]}, {"conceptId": "C98765", "definition": "The area of mucosa in the nose lined by olfactory epithelium and containing olfactory glands. (NCI)", "preferredTerm": "Olfactory Region", "submissionValue": "OLFACTORY REGION"}, {"conceptId": "C98766", "definition": "The third compartment of the forestomach of ruminants with many long folds of mucosa (resembling a book). (NCI)", "preferredTerm": "Omasum", "submissionValue": "OMASUM"}, {"conceptId": "C33209", "definition": "A double layer of peritoneum covering abdominal organs.", "preferredTerm": "Omentum", "submissionValue": "OMENTUM"}, {"conceptId": "C12760", "definition": "The portion of the retina at which the axons of the ganglion cells exit the eyeball to form the optic nerve.", "preferredTerm": "Optic Disc", "submissionValue": "OPTIC DISC", "synonyms": ["Optic Nerve Head"]}, {"conceptId": "C12762", "definition": "The part of the pharynx between the soft palate and the upper portion of the epiglottis. (NCI)", "preferredTerm": "Oropharynx", "submissionValue": "OROPHARYNX"}, {"conceptId": "C12404", "definition": "The female gonad.", "preferredTerm": "Ovary", "submissionValue": "OVARY"}, {"conceptId": "C92595", "definition": "A specimen that contains the ovary and oviduct.", "preferredTerm": "Ovary/Oviduct", "submissionValue": "OVARY/OVIDUCT"}, {"conceptId": "C12403", "definition": "The tube through which eggs pass from an ovary.", "preferredTerm": "Fallopian Tube", "submissionValue": "OVIDUCT", "synonyms": ["Fallopian Tube"]}, {"conceptId": "C12229", "definition": "The roof of the oral cavity. It separates the oral cavity from the nasal cavity.", "preferredTerm": "Palate", "submissionValue": "PALATE"}, {"conceptId": "C12230", "definition": "The part of the roof of the mouth supported by bone.", "preferredTerm": "Hard Palate", "submissionValue": "PALATE, HARD"}, {"conceptId": "C12231", "definition": "The part of the roof of the mouth not supported by bone.", "preferredTerm": "Soft Palate", "submissionValue": "PALATE, SOFT"}, {"conceptId": "C12393", "definition": "A digestive organ in the abdomen that has both endocrine and exocrine functions.", "preferredTerm": "Pancreas", "submissionValue": "PANCREAS"}, {"conceptId": "C119578", "definition": "An opening on the duodenal mucosa where the bile and pancreatic ducts enter the duodenum.", "preferredTerm": "Duodenal Papilla", "submissionValue": "PAPILLA, DUODENAL"}, {"conceptId": "C12763", "definition": "The air-filled cavities adjacent to the nasal cavity lined by a mucous membrane and located in the bones of the skull.", "preferredTerm": "Paranasal Sinus", "submissionValue": "PARANASAL SINUS"}, {"conceptId": "C77660", "definition": "The entire structure distal to the ankle joint/tarsus or wrist joint/carpus in quadruped animals.", "preferredTerm": "Paw", "submissionValue": "PAW"}, {"conceptId": "C12409", "definition": "The male organ of urination and copulation. (NCI)", "preferredTerm": "Penis", "submissionValue": "PENIS"}, {"conceptId": "C13005", "definition": "The membrane surrounding the heart and roots of the vessels at the base of the heart.", "preferredTerm": "Pericardium", "submissionValue": "PERICARDIUM"}, {"conceptId": "C33301", "definition": "The area located between the anus and vulva in females, and anus and scrotum in males. (NCI)", "preferredTerm": "Perineum", "submissionValue": "PERINEUM", "synonyms": ["Perineum"]}, {"conceptId": "C12770", "definition": "The membrane that lines the abdominal and pelvic cavities.", "preferredTerm": "Peritoneum", "submissionValue": "PERITONEUM"}, {"conceptId": "C12771", "definition": "An organized aggregate of gut-associated lymphoid tissue located in the mucosa of the small intestine.", "preferredTerm": "Peyer Patch", "submissionValue": "PEYER'S PATCH"}, {"conceptId": "C12425", "definition": "A passageway in the head and neck that includes the nasopharynx, oropharynx and laryngopharynx.", "preferredTerm": "Pharynx", "submissionValue": "PHARYNX"}, {"conceptId": "C12292", "definition": "The external part of the ear. (NCI)", "preferredTerm": "External Ear", "submissionValue": "PINNA", "synonyms": ["Auricle", "External Ear", "Pinna"]}, {"conceptId": "C13272", "definition": "An organ present in true mammals during embryonic developmen that provides the fetus with nutrients and oxygen, facilitates gas and waste exchange between the fetus and mother.", "preferredTerm": "Placenta", "submissionValue": "PLACENTA"}, {"conceptId": "C13356", "definition": "The fluid (acellular) portion of the circulating blood with retained clotting components.", "preferredTerm": "Plasma", "submissionValue": "PLASMA"}, {"conceptId": "C12469", "definition": "The serous membrane that lines the wall of the thoracic cavity and the surface of the lungs.", "preferredTerm": "Pleura", "submissionValue": "PLEURA"}, {"conceptId": "C12323", "definition": "A fold of skin covering the end of the penis.", "preferredTerm": "Prepuce", "submissionValue": "PREPUCE", "synonyms": ["Preputium Penis"]}, {"conceptId": "C111301", "definition": "The portion of the stomach of some non-mammalian species located between the thoracic esophagus and the ventriculus.", "preferredTerm": "Proventriculus", "submissionValue": "PROVENTRICULUS"}, {"conceptId": "C12887", "definition": "The funnel-shaped proximal portion of the ureter located within the kidney into which urine is secreted, from the collecting duct system of the kidney. (NCI)", "preferredTerm": "Renal Pelvis", "submissionValue": "RENAL PELVIS"}, {"conceptId": "C176412", "definition": "Tissue from any of the organs involved in reproduction.", "preferredTerm": "Reproductive Tissue", "submissionValue": "REPRODUCTIVE TISSUE"}, {"conceptId": "C33467", "definition": "A network of tubules that convey sperm from the seminiferous tubules within the testicles to the efferent ducts. (NCI)", "preferredTerm": "Rete Testis", "submissionValue": "RETE TESTIS"}, {"conceptId": "C98777", "definition": "Smallest forestomach of ruminants with complex honeycomb folding of mucosa. (NCI)", "preferredTerm": "Reticulum", "submissionValue": "RETICULUM"}, {"conceptId": "C12298", "definition": "The region of the abdomen outside the peritoneum, where the kidneys lie and the great blood vessels run.", "preferredTerm": "Retroperitoneum", "submissionValue": "RETROPERITONEUM"}, {"conceptId": "C179828", "definition": "A bony pouch in the tympanic cavity that is enclosed by the secondary tympanic membrane.", "preferredTerm": "Round Window Niche", "submissionValue": "ROUND WINDOW NICHE"}, {"conceptId": "C98778", "definition": "Largest forestomach of ruminants where bacterial fermentation occurs. (NCI)", "preferredTerm": "Rumen", "submissionValue": "RUMEN", "synonyms": ["Paunch"]}, {"conceptId": "C125896", "definition": "One of two pouches located on either side of the anus of most carnivores that contain the secretions of the anal sac glands.", "preferredTerm": "Anal Sac", "submissionValue": "SAC, ANAL"}, {"conceptId": "C14128", "definition": "Membranous sac on the ventral aspect of the developing embryo that acts as a primitive circulatory system as well as providing nourishment. (NCI)", "preferredTerm": "Yolk Sac", "submissionValue": "SAC, YOLK"}, {"conceptId": "C13275", "definition": "A clear liquid secreted by the salivary glands.", "preferredTerm": "Saliva", "submissionValue": "SALIVA"}, {"conceptId": "C12785", "definition": "The pouch that encloses the testicles.", "preferredTerm": "Scrotum", "submissionValue": "SCROTUM"}, {"conceptId": "C179829", "definition": "A membrane that encloses the round window niche of the middle ear.", "preferredTerm": "Secondary Tympanic Membrane", "submissionValue": "SECONDARY TYMPANIC MEMBRANE", "synonyms": ["Round Window Membrane"]}, {"conceptId": "C13277", "definition": "The fluid containing the spermatozoa, secreted by the testes and accessory reproductive glands of the male.", "preferredTerm": "Semen", "submissionValue": "SEMEN"}, {"conceptId": "C13325", "definition": "The clear portion of the blood that remains after the removal of the blood cells and the clotting proteins. (NCI)", "preferredTerm": "Serum", "submissionValue": "SERUM", "synonyms": ["Sera"]}, {"conceptId": "C33556", "definition": "A recess, cavity, or channel. (NCI)", "preferredTerm": "Sinus", "submissionValue": "SINUS", "synonyms": ["Sinus"]}, {"conceptId": "C77676", "definition": "The anatomic site at which medical intervention is administered. (NCI)", "preferredTerm": "Application Site", "submissionValue": "SITE, APPLICATION", "synonyms": ["Site, Exposure"]}, {"conceptId": "C77677", "definition": "The anatomic site targeted for a biopsy procedure. (NCI)", "preferredTerm": "Biopsy Site", "submissionValue": "SITE, BIOPSY"}, {"conceptId": "C92596", "definition": "The anatomic site through which fluid is transferred into or out of the body using a catheter. (NCI)", "preferredTerm": "Catheter Site", "submissionValue": "SITE, CATHETER"}, {"conceptId": "C77685", "definition": "The site of the surgical exposure of an internal organ or tissue. (NCI)", "preferredTerm": "Exteriorization Site", "submissionValue": "SITE, EXTERIORIZATION"}, {"conceptId": "C77678", "definition": "The anatomic site at which a material such as a tissue, graft, device or radioactive material is inserted with some intended degree of permanence. This term may also refer to the site of the uterus at which the early embryo is attached.", "preferredTerm": "Implantation Site", "submissionValue": "SITE, IMPLANTATION"}, {"conceptId": "C77679", "definition": "The anatomic site through which fluid is introduced into the body. (NCI)", "preferredTerm": "Infusion Site", "submissionValue": "SITE, INFUSION"}, {"conceptId": "C77680", "definition": "The anatomic site at which a medication or a vaccine is injected. (NCI)", "preferredTerm": "Injection Site", "submissionValue": "SITE, INJECTION"}, {"conceptId": "C77681", "definition": "The anatomic site at which damage or harm was suffered. (NCI)", "preferredTerm": "Injury Site", "submissionValue": "SITE, INJURY"}, {"conceptId": "C77682", "definition": "The anatomic site at which a microchip is implanted. (NCI)", "preferredTerm": "Microchip Site", "submissionValue": "SITE, MICROCHIP"}, {"conceptId": "C147512", "definition": "The anatomic site at which a subcutaneous port is implanted.", "preferredTerm": "Subcutaneous Port Site", "submissionValue": "SITE, SUBCUTANEOUS PORT"}, {"conceptId": "C77683", "definition": "The anatomic site of a cut made during surgery. The term may also refer to the resultant scar from the surgical procedure. (NCI)", "preferredTerm": "Incision Site", "submissionValue": "SITE, SURGICAL", "synonyms": ["Incision Site"]}, {"conceptId": "C77684", "definition": "The anatomic site at which a tattoo is present. (NCI)", "preferredTerm": "Tattoo Site", "submissionValue": "SITE, TATTOO"}, {"conceptId": "C48322", "definition": "Referring to the fact that the original site of growth of a metastatic cancer is unknown or uncertain. (NCI)", "preferredTerm": "Primary Site Unknown", "submissionValue": "SITE, UNCERTAIN PRIMARY"}, {"conceptId": "C12470", "definition": "An organ that constitutes the external surface of the body. It consists of the epidermis, dermis, and skin appendages. (NCI)", "preferredTerm": "Skin", "submissionValue": "SKIN", "synonyms": ["Integument", "Skin"]}, {"conceptId": "C92441", "definition": "A specimen that contains the epidermis, dermis, and subcutaneous adipose tissue.", "preferredTerm": "Skin/Subcutaneous Tissue", "submissionValue": "SKIN/SUBCUTIS"}, {"conceptId": "C92437", "definition": "The terminal part of the colon of the horse with a reduced diameter. (NCI)", "preferredTerm": "Small Colon", "submissionValue": "SMALL COLON"}, {"conceptId": "C12386", "definition": "The villous section of the intestine extending from the pylorus to the proximal large intestine.", "preferredTerm": "Small Intestine", "submissionValue": "SMALL INTESTINE"}, {"conceptId": "C12263", "definition": "The portion of the small intestine between the stomach and jejunum.", "preferredTerm": "Duodenum", "submissionValue": "SMALL INTESTINE, DUODENUM"}, {"conceptId": "C12387", "definition": "The portion of the small intestine between the jejunum and large intestine.", "preferredTerm": "Ileum", "submissionValue": "SMALL INTESTINE, ILEUM"}, {"conceptId": "C179830", "definition": "A region of the small intestine of some animals, between the duodenum and colon, wherein the jejunum and ileum are co-located but not spatially distinct from each other.", "preferredTerm": "Experimental Organism Jejunoileum", "submissionValue": "SMALL INTESTINE, JEJUNOILEUM"}, {"conceptId": "C12388", "definition": "The portion of the small intestine between the duodenum and ileum.", "preferredTerm": "Jejunum", "submissionValue": "SMALL INTESTINE, JEJUNUM"}, {"conceptId": "C88024", "definition": "An anatomic structure exclusive to rabbits that is located at the terminal part of the ileum. It is rich in lymphoid tissue.", "preferredTerm": "Sacculus Rotundus", "submissionValue": "SMALL INTESTINE, SACCULUS ROTUNDUS"}, {"conceptId": "C12998", "definition": "The series of vertebrae and other tissues extending from the skull to the last tailbone.", "preferredTerm": "Vertebral Column", "submissionValue": "SPINAL COLUMN", "synonyms": ["Vertebral Column"]}, {"conceptId": "C12464", "definition": "The portion of the central nervous system that lies within the vertebral canal and from which the spinal nerves emerge.", "preferredTerm": "Spinal Cord", "submissionValue": "SPINAL CORD", "synonyms": ["Medulla Spinalis"]}, {"conceptId": "C12892", "definition": "The segment of the spinal cord between the end of the brain stem and the thoracic spinal cord.", "preferredTerm": "Cervical Spinal Cord", "submissionValue": "SPINAL CORD, CERVICAL"}, {"conceptId": "C12895", "definition": "The segment of the spinal cord between the thoracic spinal cord and the sacral spinal cord.", "preferredTerm": "Lumbar Spinal Cord", "submissionValue": "SPINAL CORD, LUMBAR"}, {"conceptId": "C12896", "definition": "The segment of the spinal cord between the lumbar spinal cord and the caudal spinal cord.", "preferredTerm": "Sacral Spinal Cord", "submissionValue": "SPINAL CORD, SACRAL"}, {"conceptId": "C12894", "definition": "The segment of the spinal cord between the cervical spinal cord and the lumbar spinal cord.", "preferredTerm": "Thoracic Spinal Cord", "submissionValue": "SPINAL CORD, THORACIC"}, {"conceptId": "C92438", "definition": "The ascending colon of the ruminants and pigs. (NCI)", "preferredTerm": "Spiral Colon", "submissionValue": "SPIRAL COLON"}, {"conceptId": "C12432", "definition": "An abdominal organ that is part of the hematopoietic and immune systems. It is composed of the white pulp and the red pulp and is surrounded by a capsule.", "preferredTerm": "Spleen", "submissionValue": "SPLEEN"}, {"conceptId": "C12391", "definition": "The portion of the gastrointestinal tract located between the esophagus and the proximal duodenum.", "preferredTerm": "Stomach", "submissionValue": "STOMACH"}, {"conceptId": "C12256", "definition": "The region of the stomach adjacent to the esophogastric junction.", "preferredTerm": "Gastric Cardia", "submissionValue": "STOMACH, CARDIA"}, {"conceptId": "C12257", "definition": "The blind sac region of the glandular stomach.", "preferredTerm": "Fundus of the Stomach", "submissionValue": "STOMACH, FUNDUS"}, {"conceptId": "C77661", "definition": "The portion of the stomach that contains glandular mucosa.", "preferredTerm": "Glandular Stomach", "submissionValue": "STOMACH, GLANDULAR"}, {"conceptId": "C77662", "definition": "The portion of the stomach that contains stratified squamous mucosa.", "preferredTerm": "Nonglandular Stomach", "submissionValue": "STOMACH, NONGLANDULAR", "synonyms": ["Forestomach"]}, {"conceptId": "C12260", "definition": "The region of the stomach that connects to the duodenum.", "preferredTerm": "Pylorus", "submissionValue": "STOMACH, PYLORUS"}, {"conceptId": "C33645", "definition": "Adipose and connective tissue located deep to the dermis.", "preferredTerm": "Subcutis", "submissionValue": "SUBCUTIS", "synonyms": ["Subcutaneous Tissue"]}, {"conceptId": "C13280", "definition": "The liquid secreted by the sweat glands. (NCI)", "preferredTerm": "Sweat", "submissionValue": "SWEAT", "synonyms": ["Sweat"]}, {"conceptId": "C12473", "definition": "The connective tissue and synoviocytes that line the inner surface of the joint capsule.", "preferredTerm": "Synovial Membrane", "submissionValue": "SYNOVIAL MEMBRANE", "synonyms": ["Synovial Membrane", "Synovial Stratum"]}, {"conceptId": "C111323", "definition": "The vocal organ of a bird located near the tracheal bifurcation.", "preferredTerm": "Syrinx", "submissionValue": "SYRINX"}, {"conceptId": "C77663", "definition": "A flexible appendage caudal to the sacrum.", "preferredTerm": "Tail", "submissionValue": "TAIL"}, {"conceptId": "C33739", "definition": "The fluid secreted by the lacrimal apparatus.", "preferredTerm": "Tear", "submissionValue": "TEAR"}, {"conceptId": "C77664", "definition": "A specialized type of nipple distinguished by its large cistern (lactiferous sinus) that connects to the exterior through the teat canal.", "preferredTerm": "Teat", "submissionValue": "TEAT"}, {"conceptId": "C96299", "definition": "A membranous sheet that envelops a tendon.", "preferredTerm": "Tendon Sheath", "submissionValue": "TENDON SHEATH"}, {"conceptId": "C13045", "definition": "A band of fibrous connective tissue that joins bone to muscle. (NCI)", "preferredTerm": "Tendon", "submissionValue": "TENDON"}, {"conceptId": "C32043", "definition": "The tendon that, in general, attaches the gastrocnemius muscle to the calcaneous bone in the tarsus.", "preferredTerm": "Achilles Tendon", "submissionValue": "TENDON, CALCANEAL"}, {"conceptId": "C12412", "definition": "The male gonad.", "preferredTerm": "Testis", "submissionValue": "TESTIS", "synonyms": ["Testicle"]}, {"conceptId": "C77668", "definition": "A specimen that contains the testis and epididymis.", "preferredTerm": "Testis/Epididymis", "submissionValue": "TESTIS/EPIDIDYMIS"}, {"conceptId": "C62484", "definition": "The total system of structures outside the lungs that move as a part of breathing; it includes all structures from the skin to the parietal pleura. (NCI)", "preferredTerm": "Chest Wall", "submissionValue": "THORACIC WALL", "synonyms": ["Chest Wall"]}, {"conceptId": "C12433", "definition": "A primary lymphoid organ generally located in the mediastinum near the thoracic inlet and/or along lateral aspects of the neck.", "preferredTerm": "Thymus Gland", "submissionValue": "THYMUS", "synonyms": ["Thymus Gland"]}, {"conceptId": "C132256", "definition": "A tissue specimen for which the identity or anatomic origin is not known or specified.", "preferredTerm": "Unspecified Tissue", "submissionValue": "TISSUE, UNSPECIFIED"}, {"conceptId": "C12422", "definition": "The muscular organ in the mouth used in taste perception and food ingestion.", "preferredTerm": "Tongue", "submissionValue": "TONGUE"}, {"conceptId": "C12802", "definition": "A secondary lymphoid tissue in the mucosa of the pharynx.", "preferredTerm": "Tonsil", "submissionValue": "TONSIL"}, {"conceptId": "C32988", "definition": "A tonsil in the mucosa at the root of the tongue.", "preferredTerm": "Lingual Tonsil", "submissionValue": "TONSIL, LINGUAL"}, {"conceptId": "C33250", "definition": "A tonsil in the mucosa of the glossopalatine arch of the oropharynx.", "preferredTerm": "Palatine Tonsil", "submissionValue": "TONSIL, PALATINE"}, {"conceptId": "C33318", "definition": "A tonsil in the mucosa of the nasopharynx.", "preferredTerm": "Pharyngeal Tonsil", "submissionValue": "TONSIL, PHARYNGEAL", "synonyms": ["Adenoid"]}, {"conceptId": "C12506", "definition": "A hard calcified structure in the jaw; primarily used for eating.", "preferredTerm": "Tooth", "submissionValue": "TOOTH"}, {"conceptId": "C32258", "definition": "A single-cusped (pointed) and usually single-rooted tooth located between the incisors and premolars. (NCI)", "preferredTerm": "Canine Tooth", "submissionValue": "TOOTH, CANINE", "synonyms": ["Canine Tooth"]}, {"conceptId": "C32769", "definition": "A tooth between the canines in either jaw.", "preferredTerm": "Incisor", "submissionValue": "TOOTH, INCISOR"}, {"conceptId": "C33136", "definition": "A tooth behind the premolars.", "preferredTerm": "Molar Tooth", "submissionValue": "TOOTH, MOLAR"}, {"conceptId": "C32201", "definition": "A tooth between the canine and molar.", "preferredTerm": "Bicuspid Tooth", "submissionValue": "TOOTH, PREMOLAR"}, {"conceptId": "C12428", "definition": "The fibrocartilaginous tube extending from the larynx to the bronchi.", "preferredTerm": "Trachea", "submissionValue": "TRACHEA", "synonyms": ["Windpipe"]}, {"conceptId": "C33822", "definition": "The visceral and parietal serous membranes lining the testicular pouch.", "preferredTerm": "Tunica Vaginalis", "submissionValue": "TUNICA VAGINALIS"}, {"conceptId": "C112425", "definition": "The bony structure containing an inner lumen within the middle ear.", "preferredTerm": "Tympanic Bulla", "submissionValue": "TYMPANIC BULLA"}, {"conceptId": "C12502", "definition": "A thin membrane that separates the external auditory canal from the middle ear.", "preferredTerm": "Tympanic Membrane", "submissionValue": "TYMPANIC MEMBRANE", "synonyms": ["Tympanic Membrane"]}, {"conceptId": "C12416", "definition": "The tube that extends from each kidney to the urinary bladder.", "preferredTerm": "Ureter", "submissionValue": "URETER"}, {"conceptId": "C12417", "definition": "The tube that extends from the urinary bladder to the urethral opening.", "preferredTerm": "Urethra", "submissionValue": "URETHRA"}, {"conceptId": "C12414", "definition": "The distensible sac-like organ that functions as a reservoir of urine, collecting from the kidneys and eliminating via the urethra. (NCI)", "preferredTerm": "Bladder", "submissionValue": "URINARY BLADDER", "synonyms": ["Urinary Bladder"]}, {"conceptId": "C13283", "definition": "The fluid produced by the kidneys.", "preferredTerm": "Urine", "submissionValue": "URINE"}, {"conceptId": "C161570", "definition": "The portion of the uterus that connects the oviduct to the corpus uteri.", "preferredTerm": "Uterine Horn", "submissionValue": "UTERINE HORN"}, {"conceptId": "C12405", "definition": "A hollow muscular organ within which the fertilized egg implants and the embryo/fetus develops during pregnancy.", "preferredTerm": "Uterus", "submissionValue": "UTERUS", "synonyms": ["Womb"]}, {"conceptId": "C92436", "definition": "A specimen that contains the uterus and cervix.", "preferredTerm": "Uterus/Cervix", "submissionValue": "UTERUS/CERVIX"}, {"conceptId": "C77672", "definition": "A specimen that contains the uterus and ovaries.", "preferredTerm": "Uterus/Ovaries", "submissionValue": "UTERUS/OVARY"}, {"conceptId": "C12407", "definition": "The female genital canal, extending from the uterus to the vulva. (NCI)", "preferredTerm": "Vagina", "submissionValue": "VAGINA", "synonyms": ["Vagina"]}, {"conceptId": "C12670", "definition": "A cardiac valve located between the left ventricle and the aorta.", "preferredTerm": "Aortic Valve", "submissionValue": "VALVE, AORTIC"}, {"conceptId": "C12729", "definition": "A valve located in the heart.", "preferredTerm": "Cardiac Valve", "submissionValue": "VALVE, CARDIAC"}, {"conceptId": "C12753", "definition": "A cardiac valve located between the left atrium and ventricle.", "preferredTerm": "Mitral Valve", "submissionValue": "VALVE, LEFT ATRIOVENTRICULAR", "synonyms": ["Left Atrioventricular Valve", "Mitral Valve"]}, {"conceptId": "C12775", "definition": "A cardiac valve located between the right atrium and the pulmonary artery.", "preferredTerm": "Pulmonary Valve", "submissionValue": "VALVE, PULMONARY"}, {"conceptId": "C12805", "definition": "A cardiac valve located between the right atrium and ventricle.", "preferredTerm": "Tricuspid Valve", "submissionValue": "VALVE, RIGHT ATRIOVENTRICULAR", "synonyms": ["Right Atrioventricular Valve", "Tricuspid Valve"]}, {"conceptId": "C12813", "definition": "A duct carrying spermatozoa from the epididymides to the urethra.", "preferredTerm": "Vas Deferens", "submissionValue": "VAS DEFERENS", "synonyms": ["Ductus Deferens"]}, {"conceptId": "C12814", "definition": "A blood vessel that carries blood towards the heart.", "preferredTerm": "Vein", "submissionValue": "VEIN", "synonyms": ["Vein"]}, {"conceptId": "C77673", "definition": "One of the veins of the pinna; in general these veins anastmose with each other or drain into the internal maxillary or superficial temporal vein.", "preferredTerm": "Auricular Vein", "submissionValue": "VEIN, AURICULAR"}, {"conceptId": "C12883", "definition": "A vein of the arm/forelimb; in general it arises from the union of the radial and ulnar veins and drains into the axillary vein.", "preferredTerm": "Brachial Vein", "submissionValue": "VEIN, BRACHIAL"}, {"conceptId": "C92598", "definition": "A vein in the tail of some species.", "preferredTerm": "Caudal Vein", "submissionValue": "VEIN, CAUDAL", "synonyms": ["Tail Vein"]}, {"conceptId": "C32286", "definition": "A vein of the arm/forelimb; in general it arises from the dorsal venous network of the hand/forefoot and drains into the axillary vein.", "preferredTerm": "Cephalic Vein", "submissionValue": "VEIN, CEPHALIC", "synonyms": ["Vena Cephalica"]}, {"conceptId": "C12716", "definition": "A vein of the thigh; in general it arises from the popliteal vein and drains into the external iliac vein.", "preferredTerm": "Femoral Vein", "submissionValue": "VEIN, FEMORAL"}, {"conceptId": "C12738", "definition": "One of the veins of the neck; in general it arises from the junction of the maxillary and linguofacial veins and drains into the brachiocephalic or the cranial caval vein.", "preferredTerm": "Jugular Vein", "submissionValue": "VEIN, JUGULAR", "synonyms": ["Vena Jugularis"]}, {"conceptId": "C53055", "definition": "A vein of the abdomen; in general it arises from the intestines and pancreas, combines with the splenic vein, and drains into the portal vein.", "preferredTerm": "Mesenteric Vein", "submissionValue": "VEIN, MESENTERIC"}, {"conceptId": "C33343", "definition": "A vein lying in the lower part of the abdomen; in general it arises from the junction of the mesenteric and splenic veins and draining into the liver.", "preferredTerm": "Portal Vein", "submissionValue": "VEIN, PORTAL", "synonyms": ["Hepatic Portal Vein"]}, {"conceptId": "C12776", "definition": "Any of the veins that carry oxygenated blood from the lungs and drain into the left atrium of the heart.", "preferredTerm": "Pulmonary Vein", "submissionValue": "VEIN, PULMONARY"}, {"conceptId": "C33462", "definition": "A vein arising from the kidney; in general it drains into the caudal vena cava vein.", "preferredTerm": "Renal Vein", "submissionValue": "VEIN, RENAL"}, {"conceptId": "C33511", "definition": "A vein of the leg/hindlimb; in general it arises from the venous network of the leg/hindfoot and drains into the femoral vein.", "preferredTerm": "Saphenous Vein", "submissionValue": "VEIN, SAPHENA", "synonyms": ["Saphenous Vein"]}, {"conceptId": "C12817", "definition": "The two major veins (caudal or cranial) that carry deoxygenated blood from the body and drain into the right atrium of the heart.", "preferredTerm": "Vena Cava", "submissionValue": "VEIN, VENA CAVA"}, {"conceptId": "C114236", "definition": "The portion of the stomach of some non-mammalian species located between the proventriculus and the small intestine.", "preferredTerm": "Ventriculus", "submissionValue": "VENTRICULUS"}, {"conceptId": "C12679", "definition": "A tubular structure through which the blood circulates in the body. Blood vessels constitute a network composed of arteries, arterioles, capillaries, venules, and veins. (NCI)", "preferredTerm": "Blood Vessel", "submissionValue": "VESSEL, BLOOD"}, {"conceptId": "C33038", "definition": "A thin-walled tubular structure through which the lymph circulates in the body.", "preferredTerm": "Lymphatic Vessel", "submissionValue": "VESSEL, LYMPHATIC"}, {"conceptId": "C77666", "definition": "Partially digested gastric contents that are returned to the mouth or beyond via the vomit reflex present in some species.", "preferredTerm": "Vomitus", "submissionValue": "VOMITUS", "synonyms": ["Emesis", "Vomitus"]}, {"conceptId": "C12408", "definition": "The external, visible part of the female genitalia surrounding the urethral and vaginal opening(s).", "preferredTerm": "Vulva", "submissionValue": "VULVA"}, {"conceptId": "C77665", "definition": "Referring to the entire body of an animal. (NCI)", "preferredTerm": "Whole Animal", "submissionValue": "WHOLE ANIMAL"}, {"conceptId": "C41067", "definition": "Blood that has not been separated into its various components; blood that has not been modified except for the addition of an anticoagulant. (NCI)", "preferredTerm": "Whole Blood", "submissionValue": "WHOLE BLOOD"}]}