{"_links": {"parentPackage": {"href": "/mdr/ct/packages/adamct-2023-06-30", "title": "ADaM Controlled Terminology Package 54 Effective 2023-06-30", "type": "Terminology"}, "priorVersion": {"href": "/mdr/ct/packages/adamct-2023-03-31/codelists/C172335", "title": "CDISC ADaM Generalized Anxiety Disorder-7 Version 2 Questionnaire Parameter Name Terminology", "type": "Code List"}, "rootItem": {"href": "/mdr/root/ct/adamct/codelists/C172335", "title": "Version-agnostic anchor resource for codelist C172335", "type": "Root Value Domain"}, "self": {"href": "/mdr/ct/packages/adamct-2023-06-30/codelists/C172335", "title": "CDISC ADaM Generalized Anxiety Disorder-7 Version 2 Questionnaire Parameter Name Terminology", "type": "Code List"}}, "conceptId": "C172335", "definition": "A parameter name codelist for the Generalized Anxiety Disorder - 7 Version 2 Questionnaire (GAD-7 V2) to support the calculation of total score in ADaM.", "extensible": "false", "name": "Generalized Anxiety Disorder - 7 Version 2 Questionnaire Parameter Name", "preferredTerm": "CDISC ADaM Generalized Anxiety Disorder-7 Version 2 Questionnaire Parameter Name Terminology", "submissionValue": "GAD02PN", "synonyms": ["Generalized Anxiety Disorder - 7 Version 2 Questionnaire Parameter Name"], "terms": [{"conceptId": "C172451", "definition": "Generalized Anxiety Disorder - 7 Version 2 - Total score used for analysis.", "preferredTerm": "Generalized Anxiety Disorder - 7 Version 2 - Total Score for Analysis", "submissionValue": "GAD02-Total Score - Analysis", "synonyms": ["GAD02-Total Score - Analysis"]}]}