{"_links": {"parentPackage": {"href": "/mdr/ct/packages/adamct-2023-06-30", "title": "ADaM Controlled Terminology Package 54 Effective 2023-06-30", "type": "Terminology"}, "priorVersion": {"href": "/mdr/ct/packages/adamct-2023-03-31/codelists/C187455", "title": "CDISC ADaM Hamilton Depression Rating Scale - 17 Item Clinical Classification Parameter Name Terminology", "type": "Code List"}, "rootItem": {"href": "/mdr/root/ct/adamct/codelists/C187455", "title": "Version-agnostic anchor resource for codelist C187455", "type": "Root Value Domain"}, "self": {"href": "/mdr/ct/packages/adamct-2023-06-30/codelists/C187455", "title": "CDISC ADaM Hamilton Depression Rating Scale - 17 Item Clinical Classification Parameter Name Terminology", "type": "Code List"}}, "conceptId": "C187455", "definition": "A parameter name codelist for the Hamilton Depression Rating Scale - 17 Item Clinical Classification (HAMD 17) to support the calculation of total score in ADaM.", "extensible": "false", "name": "Hamilton Depression Rating Scale - 17 Item Clinical Classification Parameter Name", "preferredTerm": "CDISC ADaM Hamilton Depression Rating Scale - 17 Item Clinical Classification Parameter Name Terminology", "submissionValue": "HAMD1PN", "synonyms": ["Hamilton Depression Rating Scale - 17 Item Clinical Classification Parameter Name"], "terms": [{"conceptId": "C187466", "definition": "Hamilton Depression Rating Scale - 17 Item - Total score used for analysis.", "preferredTerm": "Hamilton Depression Rating Scale - 17 Item - Total Score for Analysis", "submissionValue": "HAMD1-Total Score - Analysis", "synonyms": ["HAMD1-Total Score - Analysis"]}]}