{"_links": {"parentPackage": {"href": "/mdr/ct/packages/adamct-2023-06-30", "title": "ADaM Controlled Terminology Package 54 Effective 2023-06-30", "type": "Terminology"}, "priorVersion": {"href": "/mdr/ct/packages/adamct-2023-03-31/codelists/C193277", "title": "CDISC ADaM National Early Warning Score 2 Clinical Classification Parameter Name Terminology", "type": "Code List"}, "rootItem": {"href": "/mdr/root/ct/adamct/codelists/C193277", "title": "Version-agnostic anchor resource for codelist C193277", "type": "Root Value Domain"}, "self": {"href": "/mdr/ct/packages/adamct-2023-06-30/codelists/C193277", "title": "CDISC ADaM National Early Warning Score 2 Clinical Classification Parameter Name Terminology", "type": "Code List"}}, "conceptId": "C193277", "definition": "A parameter name codelist for the National Early Warning Score 2 Clinical Classification (NEWS2) to support the calculation of total score in ADaM.", "extensible": "false", "name": "National Early Warning Score 2 Clinical Classification Parameter Name", "preferredTerm": "CDISC ADaM National Early Warning Score 2 Clinical Classification Parameter Name Terminology", "submissionValue": "NEWS1PN", "synonyms": ["National Early Warning Score 2 Clinical Classification Parameter Name"], "terms": [{"conceptId": "C193373", "definition": "National Early Warning Score 2 - Total score used for analysis.", "preferredTerm": "National Early Warning Score 2 - Total Score for Analysis", "submissionValue": "NEWS1-Total Score - Analysis", "synonyms": ["NEWS1-Total Score - Analysis"]}, {"conceptId": "C193374", "definition": "National Early Warning Score 2 - Trigger used for analysis.", "preferredTerm": "National Early Warning Score 2 - Trigger for Analysis", "submissionValue": "NEWS1-Trigger - Analysis", "synonyms": ["NEWS1-Trigger - Analysis"]}]}