{"_links": {"parentPackage": {"href": "/mdr/ct/packages/sendct-2016-03-25", "title": "SEND Controlled Terminology Package 25 Effective 2016-03-25", "type": "Terminology"}, "priorVersion": {"href": "/mdr/ct/packages/sendct-2015-12-18/codelists/C111113", "title": "CDISC SEND Domain Abbreviation Terminology", "type": "Code List"}, "rootItem": {"href": "/mdr/root/ct/sendct/codelists/C111113", "title": "Version-agnostic anchor resource for codelist C111113", "type": "Root Value Domain"}, "self": {"href": "/mdr/ct/packages/sendct-2016-03-25/codelists/C111113", "title": "CDISC SEND Domain Abbreviation Terminology", "type": "Code List"}}, "conceptId": "C111113", "definition": "A unique, 2-character domain code used in the regulatory submission process of pre-clinical studies. The domain abbreviation is used consistently throughout the submission, i.e. in the dataset name, as the value of the domain variable within the dataset, and as a prefix for most variable names in the dataset.", "extensible": "true", "name": "SEND Domain Abbreviation", "preferredTerm": "CDISC SEND Domain Abbreviation Terminology", "submissionValue": "SDOMAIN", "synonyms": ["SEND Domain Abbreviation"], "terms": [{"conceptId": "C95083", "definition": "Body weight gain is the actual difference between two body weight measurements for any given interval for a subject. This is most commonly shown as the difference between two consecutive body weight measurements.", "preferredTerm": "Body Weight Gain Domain", "submissionValue": "BG", "synonyms": ["Body Weight Gain"]}, {"conceptId": "C95084", "definition": "This domain captures behavioral testing measurements on individual subjects.", "preferredTerm": "Behavioral Domain", "submissionValue": "BH", "synonyms": ["Behavioral"]}, {"conceptId": "C95085", "definition": "This domain captures body weights collected for subjects during the study and at the end of the study (terminal body weights).", "preferredTerm": "Body Weight Domain", "submissionValue": "BW", "synonyms": ["Body Weight"]}, {"conceptId": "C95086", "definition": "This domain captures clinical sign information including ophthalmology, physical examination, and dermal examination collected in life while executing the study.", "preferredTerm": "Clinical Observation Domain", "submissionValue": "CL", "synonyms": ["Clinical Observation"]}, {"conceptId": "C49569", "definition": "The Comments dataset accommodates two sources of comments: 1) those collected alongside other data on topical case report form (CRF) pages such as Adverse Events and 2) those collected on a separate page specifically dedicated to comments.", "preferredTerm": "Comment Domain", "submissionValue": "CO", "synonyms": ["Comments"]}, {"conceptId": "C102605", "definition": "A domain for physiological findings related to the cardiovascular system, including the heart, blood vessels and lymphatic vessels.", "preferredTerm": "Cardiovascular System Findings Domain", "submissionValue": "CV", "synonyms": ["Cardiovascular System Findings"]}, {"conceptId": "C95087", "definition": "This domain captures the diagnosis of the cause of death for a subject.", "preferredTerm": "Death Diagnosis Domain", "submissionValue": "DD", "synonyms": ["Death Diagnosis"]}, {"conceptId": "C49572", "definition": "The Demographics domain includes a set of essential standard variables that describe each subject in a clinical study. It is the parent domain for all other observations for human clinical subjects.", "preferredTerm": "Demographics Domain", "submissionValue": "DM", "synonyms": ["Demographics"]}, {"conceptId": "C49576", "definition": "A subject domain utilized for the submission of information encompassing and representing data, vocabulary or records related to disposition. (NCI)", "preferredTerm": "Disposition Domain", "submissionValue": "DS", "synonyms": ["Disposition"]}, {"conceptId": "C49626", "definition": "Findings related to the collection of ECG data, including position of the subject, method of evaluation, all cycle measurements and all findings from the ECG including an overall interpretation if collected or derived.", "preferredTerm": "Electrocardiogram Domain", "submissionValue": "EG", "synonyms": ["Electrocardiogram"]}, {"conceptId": "C49587", "definition": "The Exposure domain model records the details of a subject's exposure to protocol-specified study treatment. Study treatment may be any intervention that is prospectively defined as a test material within a study, and is typically but not always supplied to the subject.", "preferredTerm": "Exposure Domain", "submissionValue": "EX", "synonyms": ["Exposure"]}, {"conceptId": "C95089", "definition": "This domain captures test results relative to male and female fertility.", "preferredTerm": "Fertility Domain", "submissionValue": "FE", "synonyms": ["Fertility"]}, {"conceptId": "C106522", "definition": "The fetal measurements domain captures individual fetal body and tissue weights, as well as growth measurements.", "preferredTerm": "Fetal Measurements Domain", "submissionValue": "FM", "synonyms": ["Fetal Measurements"]}, {"conceptId": "C95090", "definition": "This domain captures food/water consumption of animals in the study. The data in this domain is derived data.", "preferredTerm": "Food and Water Consumption Domain", "submissionValue": "FW", "synonyms": ["Food And Water"]}, {"conceptId": "C95091", "definition": "This domain captures observations for fetal and pup morphological examinations.", "preferredTerm": "Fetal and Neonatal Developmental Morphology Domain", "submissionValue": "FX", "synonyms": ["Fetal and Neonatal Developmental Morphology"]}, {"conceptId": "C95092", "definition": "The Implantation Classification domain provides a record for each implantation identified for the scheduled cesarean section component of a study.", "preferredTerm": "Implantation Classification Domain", "submissionValue": "IC", "synonyms": ["Implantation Classification"]}, {"conceptId": "C49592", "definition": "Laboratory test findings including, but is not limited to hematology, clinical chemistry and urinalysis data. This domain does not include microbiology or pharmacokinetic data, which are stored in separate domains.", "preferredTerm": "Laboratory Data Domain", "submissionValue": "LB", "synonyms": ["Laboratory Data"]}, {"conceptId": "C95093", "definition": "This domain captures litter based results in female animals for cesarean section and/or delivery components of a study, including litter survival during preweaning.", "preferredTerm": "Cesarean Section and Delivery Litter Results Domain", "submissionValue": "LR", "synonyms": ["Cesarean Section and Delivery Litter Results"]}, {"conceptId": "C95094", "definition": "The gross pathology findings recorded at necropsy.", "preferredTerm": "Macroscopic Findings Domain", "submissionValue": "MA", "synonyms": ["Macroscopic Findings"]}, {"conceptId": "C95095", "definition": "The histopathology findings and microscopic evaluations recorded.", "preferredTerm": "Microscopic Findings Domain", "submissionValue": "MI", "synonyms": ["Microscopic Findings"]}, {"conceptId": "C102677", "definition": "A domain for physiological findings related to the nervous system, including the brain, spinal cord, the cranial and spinal nerves, autonomic ganglia and plexuses.", "preferredTerm": "Nervous System Findings Domain", "submissionValue": "NV", "synonyms": ["Nervous System Findings"]}, {"conceptId": "C49605", "definition": "Findings from organ measurement evaluations.", "preferredTerm": "Organ Measurement Domain", "submissionValue": "OM", "synonyms": ["Organ Measurements"]}, {"conceptId": "C102694", "definition": "Nonclinical pairing records for the fertility component of a study.", "preferredTerm": "Pairing Events Domain", "submissionValue": "PA", "synonyms": ["Pairing Events"]}, {"conceptId": "C49606", "definition": "Concentrations of drugs/metabolites in fluids or tissues as a function of time.", "preferredTerm": "Pharmacokinetic Concentration Domain", "submissionValue": "PC", "synonyms": ["Pharmacokinetic Concentration"]}, {"conceptId": "C95097", "definition": "This domain captures information of any palpable masses examined during the experimental phase.", "preferredTerm": "Palpable Masses Domain", "submissionValue": "PM", "synonyms": ["Palpable Masses"]}, {"conceptId": "C49607", "definition": "Pharmacokinetic parameters derived from pharmacokinetic concentration-time (PC) data.", "preferredTerm": "Pharmacokinetic Parameters Domain", "submissionValue": "PP", "synonyms": ["Pharmacokinetic Parameters"]}, {"conceptId": "C102678", "definition": "Pregnancy results of female nonclinical subjects.", "preferredTerm": "Nonclinical Pregnancy Results Domain", "submissionValue": "PY", "synonyms": ["Nonclinical Pregnancy Results"]}, {"conceptId": "C95098", "definition": "A domain for physiological findings related to the respiratory system, including the organs that are involved in breathing such as the nose, throat, larynx, trachea, bronchi and lungs.", "preferredTerm": "Respiratory Domain", "submissionValue": "RE", "synonyms": ["Respiratory System Findings"]}, {"conceptId": "C49610", "definition": "The subject characteristics domain is for data not collected in other domains that is subject-related.", "preferredTerm": "Subject Characteristics Domain", "submissionValue": "SC", "synonyms": ["Subject Characteristics"]}, {"conceptId": "C49616", "definition": "The subject element table describes the actual order of elements followed by the subject, together with the start date/time and end date/time for each element.", "preferredTerm": "Subject Element Domain", "submissionValue": "SE", "synonyms": ["Subject Element"]}, {"conceptId": "C95099", "definition": "The Subject Stages domain captures subject level non-treatment related blocks of time known as stages, such as Gestation, Lactation and Premating.", "preferredTerm": "Subject Stages Domain", "submissionValue": "SJ", "synonyms": ["Subject Stages"]}, {"conceptId": "C49618", "definition": "The trial arms table describes each planned arm in the trial. An arm is described as an ordered sequence of elements.", "preferredTerm": "Trial Arms Domain", "submissionValue": "TA", "synonyms": ["Trial Arms"]}, {"conceptId": "C49619", "definition": "The trial elements table describes the element code that is unique for each element, the element description, and the rules for starting and ending an element.", "preferredTerm": "Trial Elements Domain", "submissionValue": "TE", "synonyms": ["Trial Elements"]}, {"conceptId": "C95100", "definition": "This domain captures the tumor findings of the nonclinical subject.", "preferredTerm": "Tumor Findings Domain", "submissionValue": "TF", "synonyms": ["Tumor Findings"]}, {"conceptId": "C95101", "definition": "The trial paths domain is not subject oriented. This domain provides the complete planned non-treatment related sequences of stages for each path in a study.", "preferredTerm": "Trial Paths Domain", "submissionValue": "TP", "synonyms": ["Trial Paths"]}, {"conceptId": "C53483", "definition": "The trial summary information domain is not subject oriented. It contains one record for each trial summary characteristic.", "preferredTerm": "Trial Summary Domain", "submissionValue": "TS", "synonyms": ["Trial Summary"]}, {"conceptId": "C95102", "definition": "The trial stages domain is not subject oriented. It captures non-treatment related planned blocks of time known as stages, such as Gestation, Lactation and Premating.", "preferredTerm": "Trial Stages Domain", "submissionValue": "TT", "synonyms": ["Trial Stages"]}, {"conceptId": "C95103", "definition": "The trial stages domain is not subject oriented. It contains one record for each trial set characteristic including experimental factors, treatment factors, inherent characteristics, or distinct sponsor designations.", "preferredTerm": "Trial Sets Domain", "submissionValue": "TX", "synonyms": ["Trial Sets"]}, {"conceptId": "C49622", "definition": "Measurements including but not limited to blood pressure, temperature, respiration, body surface area, BMI, height and weight.", "preferredTerm": "Vital Signs Domain", "submissionValue": "VS", "synonyms": ["Vital Signs"]}]}