{"_links": {"parentPackage": {"href": "/mdr/ct/packages/sendct-2016-03-25", "title": "SEND Controlled Terminology Package 25 Effective 2016-03-25", "type": "Terminology"}, "priorVersion": {"href": "/mdr/ct/packages/sendct-2015-12-18/codelists/C89980", "title": "CDISC SEND Subject Characteristic Test Name Terminology", "type": "Code List"}, "rootItem": {"href": "/mdr/root/ct/sendct/codelists/C89980", "title": "Version-agnostic anchor resource for codelist C89980", "type": "Root Value Domain"}, "self": {"href": "/mdr/ct/packages/sendct-2016-03-25/codelists/C89980", "title": "CDISC SEND Subject Characteristic Test Name Terminology", "type": "Code List"}}, "conceptId": "C89980", "definition": "Terminology for the test names concerned with the distinguishing qualities or prominent aspect of a person, object, action, process, or substance.", "extensible": "true", "name": "SEND Subject Characteristics Test Name", "preferredTerm": "CDISC SEND Subject Characteristic Test Name Terminology", "submissionValue": "SBCSND", "synonyms": ["SEND Subject Characteristics Test Name"], "terms": [{"conceptId": "C90353", "definition": "A secondary sequence of characters used to identify a subject.", "preferredTerm": "Alternate Identifier", "submissionValue": "Alternate Identifier", "synonyms": ["Alternate Identifier"]}, {"conceptId": "C90383", "definition": "A plan that specifies a diet, amount and schedule of nutritional intake.", "preferredTerm": "Feeding Regimen", "submissionValue": "Feeding Regimen", "synonyms": ["Feeding Regimen"]}, {"conceptId": "C90392", "definition": "The hue of a subject's hair or fur. (NCI)", "preferredTerm": "Hair Coat Color", "submissionValue": "Hair Coat Color", "synonyms": ["Hair Coat Color"]}, {"conceptId": "C90435", "definition": "A distinctive observable characteristic of an object. (NCI)", "preferredTerm": "Physical Marking", "submissionValue": "Physical Marking", "synonyms": ["Physical Marking"]}, {"conceptId": "C90473", "definition": "The name of the organization that supplied the test subjects. (NCI)", "preferredTerm": "Test Subject Supplier", "submissionValue": "Test Subject Supplier Name", "synonyms": ["Test Subject Supplier", "Test Subject Supplier Name"]}, {"conceptId": "C90474", "definition": "The geographic location of the organization that supplied the test subjects.", "preferredTerm": "Test Subject Supplier Site", "submissionValue": "Test Subject Supplier Site", "synonyms": ["Test Subject Supplier Site"]}, {"conceptId": "C68551", "definition": "Numeric ID assignment by United States Department of Agriculture for test facilities.", "preferredTerm": "USDA_ID", "submissionValue": "USDA Number", "synonyms": ["USDA Number"]}]}