{"_links": {"parentPackage": {"href": "/mdr/ct/packages/sendct-2016-03-25", "title": "SEND Controlled Terminology Package 25 Effective 2016-03-25", "type": "Terminology"}, "priorVersion": {"href": "/mdr/ct/packages/sendct-2015-12-18/codelists/C89962", "title": "CDISC SEND Body Weight Test Code Terminology", "type": "Code List"}, "rootItem": {"href": "/mdr/root/ct/sendct/codelists/C89962", "title": "Version-agnostic anchor resource for codelist C89962", "type": "Root Value Domain"}, "self": {"href": "/mdr/ct/packages/sendct-2016-03-25/codelists/C89962", "title": "CDISC SEND Body Weight Test Code Terminology", "type": "Code List"}}, "conceptId": "C89962", "definition": "Terminology for the test codes concerned with the measurement of body mass.", "extensible": "true", "name": "Body Weight Test Code", "preferredTerm": "CDISC SEND Body Weight Test Code Terminology", "submissionValue": "BWTESTCD", "synonyms": ["Body Weight Test Code"], "terms": [{"conceptId": "C81328", "definition": "The weight of a subject. (NCI)", "preferredTerm": "Body Weight", "submissionValue": "BW", "synonyms": ["Body Weight"]}, {"conceptId": "C124477", "definition": "The maternal body weight adjusted for the weight of the gravid uterus. This is derived by subtracting the gravid uterus weight from the total maternal body weight.", "preferredTerm": "Gravid Uterus Adjusted Maternal Body Weight", "submissionValue": "BWADJGU", "synonyms": ["Gravid Uterus Adjusted Body Weight"]}, {"conceptId": "C90464", "definition": "The weight of a subject at a specified end point. (NCI)", "preferredTerm": "Terminal Body Weight", "submissionValue": "TERMBW", "synonyms": ["Terminal Body Weight"]}]}