{"_links": {"parentPackage": {"href": "/mdr/ct/packages/sdtmct-2020-11-06", "title": "SDTM Controlled Terminology Package 43 Effective 2020-11-06", "type": "Terminology"}, "priorVersion": {"href": "/mdr/ct/packages/sdtmct-2020-06-26/codelists/C100137", "title": "CDISC Clinical Classification HAMD 17 Test Name Terminology", "type": "Code List"}, "rootItem": {"href": "/mdr/root/ct/sdtmct/codelists/C100137", "title": "Version-agnostic anchor resource for codelist C100137", "type": "Root Value Domain"}, "self": {"href": "/mdr/ct/packages/sdtmct-2020-11-06/codelists/C100137", "title": "CDISC Clinical Classification HAMD 17 Test Name Terminology", "type": "Code List"}}, "conceptId": "C100137", "definition": "The Hamilton Depression Rating Scale - 17 Item test name.", "extensible": "false", "name": "Hamilton Depression Rating Scale - 17 Item Clinical Classification Test Name", "preferredTerm": "CDISC Clinical Classification HAMD 17 Test Name Terminology", "submissionValue": "HAMD1TN", "synonyms": ["Hamilton Depression Rating Scale - 17 Item Clinical Classification Test Name"], "terms": [{"conceptId": "C100406", "definition": "Hamilton Depression Rating Scale 17 Item - Agitation.", "preferredTerm": "HAMD-17 - Agitation", "submissionValue": "HAMD1-Agitation", "synonyms": ["HAMD1-Agitation"]}, {"conceptId": "C100407", "definition": "Hamilton Depression Rating Scale 17 Item - Anxiety psychic.", "preferredTerm": "HAMD-17 - Psychic Anxiety", "submissionValue": "HAMD1-Anxiety Psychic", "synonyms": ["HAMD1-Anxiety Psychic"]}, {"conceptId": "C100408", "definition": "Hamilton Depression Rating Scale 17 Item - Anxiety somatic: physiological concomitants of anxiety such as gastro-intestinal (dry mouth, wind, indigestion, diarrhea, cramps, belching), cardiovascular (palpitations, headaches), respiratory (hyperventilation, sighing), urinary frequency, sweating.", "preferredTerm": "HAMD-17 - Somatic Anxiety", "submissionValue": "HAMD1-Anxiety Somatic", "synonyms": ["HAMD1-Anxiety Somatic"]}, {"conceptId": "C100398", "definition": "Hamilton Depression Rating Scale 17 Item - Depressed mood: sadness, hopeless, helpless, worthless.", "preferredTerm": "HAMD-17 - Depressed Mood", "submissionValue": "HAMD1-Depressed Mood", "synonyms": ["HAMD1-Depressed Mood"]}, {"conceptId": "C100399", "definition": "Hamilton Depression Rating Scale 17 Item - Feelings of guilt.", "preferredTerm": "HAMD-17 - Feelings of Guilt", "submissionValue": "HAMD1-Feelings of Guilt", "synonyms": ["HAMD1-Feelings of Guilt"]}, {"conceptId": "C100410", "definition": "Hamilton Depression Rating Scale 17 Item - General somatic symptoms.", "preferredTerm": "HAMD-17 - General Somatic Symptoms", "submissionValue": "HAMD1-General Somatic Symptoms", "synonyms": ["HAMD1-General Somatic Symptoms"]}, {"conceptId": "C100411", "definition": "Hamilton Depression Rating Scale 17 Item - Genital symptoms: symptoms such as loss of libido, menstrual disturbances.", "preferredTerm": "HAMD-17 - Genital Symptoms", "submissionValue": "HAMD1-Genital Symptoms", "synonyms": ["HAMD1-Genital Symptoms"]}, {"conceptId": "C100412", "definition": "Hamilton Depression Rating Scale 17 Item - Hypochondriasis.", "preferredTerm": "HAMD-17 - Hypochondriasis", "submissionValue": "HAMD1-Hypochondriasis", "synonyms": ["HAMD1-Hypochondriasis"]}, {"conceptId": "C100415", "definition": "Hamilton Depression Rating Scale 17 Item - Insight.", "preferredTerm": "HAMD-17 - Insight", "submissionValue": "HAMD1-Insight", "synonyms": ["HAMD1-Insight"]}, {"conceptId": "C100401", "definition": "Hamilton Depression Rating Scale 17 Item - Insomnia: early in the night.", "preferredTerm": "HAMD-17 - Insomnia - Early Night", "submissionValue": "HAMD1-Insomnia Early - Early Night", "synonyms": ["HAMD1-Insomnia Early - Early Night"]}, {"conceptId": "C100403", "definition": "Hamilton Depression Rating Scale 17 Item - Insomnia: early hours of the morning.", "preferredTerm": "HAMD-17 - Insomnia - Early Morning", "submissionValue": "HAMD1-Insomnia Early Hours - Morning", "synonyms": ["HAMD1-Insomnia Early Hours - Morning"]}, {"conceptId": "C100402", "definition": "Hamilton Depression Rating Scale 17 Item - Insomnia: middle of the night.", "preferredTerm": "HAMD-17 - Insomnia - Middle Night", "submissionValue": "HAMD1-Insomnia Middle - Middle Night", "synonyms": ["HAMD1-Insomnia Middle - Middle Night"]}, {"conceptId": "C100413", "definition": "Hamilton Depression Rating Scale 17 Item - Loss of weight according to the patient.", "preferredTerm": "HAMD-17 - Loss of Weight According to Patient", "submissionValue": "HAMD1-Loss of WT According to Patient", "synonyms": ["HAMD1-Loss of WT According to Patient"]}, {"conceptId": "C100414", "definition": "Hamilton Depression Rating Scale 17 Item - Loss of weight according to weekly measurements.", "preferredTerm": "HAMD-17 - Loss of Weight According to Weekly Measurements", "submissionValue": "HAMD1-Loss of WT According to WK Meas", "synonyms": ["HAMD1-Loss of WT According to WK Meas"]}, {"conceptId": "C100405", "definition": "Hamilton Depression Rating Scale 17 Item - Retardation.", "preferredTerm": "HAMD-17 - Retardation", "submissionValue": "HAMD1-Retardation", "synonyms": ["HAMD1-Retardation"]}, {"conceptId": "C100409", "definition": "Hamilton Depression Rating Scale 17 Item - Somatic symptoms gastro-intestinal.", "preferredTerm": "HAMD-17 - Gastrointestinal Somatic Symptoms", "submissionValue": "HAMD1-Somatic Symptoms GI", "synonyms": ["HAMD1-Somatic Symptoms GI"]}, {"conceptId": "C100400", "definition": "Hamilton Depression Rating Scale 17 Item - Suicide.", "preferredTerm": "HAMD-17 - Suicide", "submissionValue": "HAMD1-Suicide", "synonyms": ["HAMD1-Suicide"]}, {"conceptId": "C100416", "definition": "Hamilton Depression Rating Scale 17 Item - Total Score.", "preferredTerm": "HAMD-17 - Total Score", "submissionValue": "HAMD1-Total Score", "synonyms": ["HAMD1-Total Score"]}, {"conceptId": "C100404", "definition": "Hamilton Depression Rating Scale 17 Item - Work and activities.", "preferredTerm": "HAMD-17 - Work and Activities", "submissionValue": "HAMD1-Work and Activities", "synonyms": ["HAMD1-Work and Activities"]}]}