{"_links": {"parentPackage": {"href": "/mdr/ct/packages/sdtmct-2020-11-06", "title": "SDTM Controlled Terminology Package 43 Effective 2020-11-06", "type": "Terminology"}, "priorVersion": {"href": "/mdr/ct/packages/sdtmct-2020-06-26/codelists/C100154", "title": "CDISC Questionnaire FPSR Test Code Terminology", "type": "Code List"}, "rootItem": {"href": "/mdr/root/ct/sdtmct/codelists/C100154", "title": "Version-agnostic anchor resource for codelist C100154", "type": "Root Value Domain"}, "self": {"href": "/mdr/ct/packages/sdtmct-2020-11-06/codelists/C100154", "title": "CDISC Questionnaire FPSR Test Code Terminology", "type": "Code List"}}, "conceptId": "C100154", "definition": "Faces Pain Scale - Revised test code.", "extensible": "false", "name": "Faces Pain Scale - Revised Questionnaire Test Code", "preferredTerm": "CDISC Questionnaire FPSR Test Code Terminology", "submissionValue": "FPSR1TC", "synonyms": ["Faces Pain Scale - Revised Questionnaire Test Code"], "terms": [{"conceptId": "C101013", "definition": "Faces Pain Scale - Revised - Point to the face that shows how much you hurt [right now].", "preferredTerm": "FPSR - How Much Do You Hurt", "submissionValue": "FPSR101", "synonyms": ["FPSR1-How Much Do You Hurt"]}]}