{"_links": {"parentPackage": {"href": "/mdr/ct/packages/sdtmct-2020-11-06", "title": "SDTM Controlled Terminology Package 43 Effective 2020-11-06", "type": "Terminology"}, "priorVersion": {"href": "/mdr/ct/packages/sdtmct-2020-06-26/codelists/C101848", "title": "CDISC SDTM Risk Assessment Terminology", "type": "Code List"}, "rootItem": {"href": "/mdr/root/ct/sdtmct/codelists/C101848", "title": "Version-agnostic anchor resource for codelist C101848", "type": "Root Value Domain"}, "self": {"href": "/mdr/ct/packages/sdtmct-2020-11-06/codelists/C101848", "title": "CDISC SDTM Risk Assessment Terminology", "type": "Code List"}}, "conceptId": "C101848", "definition": "A terminology codelist to describe the risk of a disease, disorder or abnormal condition.", "extensible": "false", "name": "Risk Assessment", "preferredTerm": "CDISC SDTM Risk Assessment Terminology", "submissionValue": "RSKASMT", "synonyms": ["Risk Assessment"], "terms": [{"conceptId": "C102401", "definition": "The potential future harm that may arise from some present action or attribute or condition is almost certain.", "preferredTerm": "High Risk", "submissionValue": "HIGH RISK"}, {"conceptId": "C102402", "definition": "The potential future harm that may arise from some present action or attribute or condition is moderate.", "preferredTerm": "Intermediate Risk", "submissionValue": "INTERMEDIATE RISK"}, {"conceptId": "C102403", "definition": "The potential future harm that may arise from some present action or attribute or condition is small.", "preferredTerm": "Low Risk", "submissionValue": "LOW RISK"}, {"conceptId": "C139268", "definition": "The potential future harm that may arise from some present action or attribute or condition is minimal.", "preferredTerm": "Minimal Risk", "submissionValue": "MINIMAL RISK"}, {"conceptId": "C17998", "definition": "Not known, not observed, not recorded, or refused. (NCI)", "preferredTerm": "Unknown", "submissionValue": "UNKNOWN", "synonyms": ["U", "UNK", "Unknown"]}]}