{"_links": {"parentPackage": {"href": "/mdr/ct/packages/sdtmct-2020-11-06", "title": "SDTM Controlled Terminology Package 43 Effective 2020-11-06", "type": "Terminology"}, "priorVersion": {"href": "/mdr/ct/packages/sdtmct-2020-06-26/codelists/C106671", "title": "CDISC Questionnaire SGRQ-C Test Code Terminology", "type": "Code List"}, "rootItem": {"href": "/mdr/root/ct/sdtmct/codelists/C106671", "title": "Version-agnostic anchor resource for codelist C106671", "type": "Root Value Domain"}, "self": {"href": "/mdr/ct/packages/sdtmct-2020-11-06/codelists/C106671", "title": "CDISC Questionnaire SGRQ-C Test Code Terminology", "type": "Code List"}}, "conceptId": "C106671", "definition": "St. George's Respiratory Questionnaire for COPD Patients test code.", "extensible": "false", "name": "St. George's Respiratory Questionnaire for COPD Patients Questionnaire Test Code", "preferredTerm": "CDISC Questionnaire SGRQ-C Test Code Terminology", "submissionValue": "SGRQC1TC", "synonyms": ["St. George's Respiratory Questionnaire for COPD Patients Questionnaire Test Code"], "terms": [{"conceptId": "C106853", "definition": "St. George's Respiratory Questionnaire - Please check one box to show how you describe your current health.", "preferredTerm": "SGRQ-C - Description of Your Current Health", "submissionValue": "SGRQC101", "synonyms": ["SGRQC1-Describe Your Current Health"]}, {"conceptId": "C106854", "definition": "St. George's Respiratory Questionnaire - I cough.", "preferredTerm": "SGRQ-C - Cough", "submissionValue": "SGRQC102", "synonyms": ["SGRQC1-I Cough"]}, {"conceptId": "C106855", "definition": "St. George's Respiratory Questionnaire - I bring up phlegm (sputum).", "preferredTerm": "SGRQ-C - Bring Up Phlegm", "submissionValue": "SGRQC103", "synonyms": ["SGRQC1-I Bring Up Phlegm"]}, {"conceptId": "C106856", "definition": "St. George's Respiratory Questionnaire - I have shortness of breath.", "preferredTerm": "SGRQ-C - Have Shortness of Breath", "submissionValue": "SGRQC104", "synonyms": ["SGRQC1-I Have Shortness of Breath"]}, {"conceptId": "C106857", "definition": "St. George's Respiratory Questionnaire - I have attacks of wheezing.", "preferredTerm": "SGRQ-C - Have Attacks of Wheezing", "submissionValue": "SGRQC105", "synonyms": ["SGRQC1-I Have Attacks of Wheezing"]}, {"conceptId": "C106858", "definition": "St. George's Respiratory Questionnaire - How many respiratory attacks did you have during the last year?", "preferredTerm": "SGRQ-C - Number of Respiratory Attacks Last Year", "submissionValue": "SGRQC106", "synonyms": ["SGRQC1-How Many Respiratory Attacks"]}, {"conceptId": "C106859", "definition": "St. George's Respiratory Questionnaire - How often do you have good days (with few respiratory problems)?", "preferredTerm": "SGRQ-C - Good Days with Few Respiratory Problems", "submissionValue": "SGRQC107", "synonyms": ["SGRQC1-How Often Do You Have Good Days"]}, {"conceptId": "C106860", "definition": "St. George's Respiratory Questionnaire - If you wheeze, is it worse when you get up in the morning?", "preferredTerm": "SGRQ-C - Wheezing Worse In the Morning", "submissionValue": "SGRQC108", "synonyms": ["SGRQC1-Wheeze Worse in the Morning"]}, {"conceptId": "C106861", "definition": "St. George's Respiratory Questionnaire - How would you describe your respiratory problems?", "preferredTerm": "SGRQ-C - Description of Your Respiratory Problems", "submissionValue": "SGRQC109", "synonyms": ["SGRQC1-Describe Your Resp Problems"]}, {"conceptId": "C106862", "definition": "St. George's Respiratory Questionnaire - Questions about what activities usually make you feel breathless: Washing or dressing yourself.", "preferredTerm": "SGRQ-C - Feel Breathless Washing or Dressing Yourself", "submissionValue": "SGRQC110", "synonyms": ["SGRQC1-Washing or Dressing Yourself"]}, {"conceptId": "C106863", "definition": "St. George's Respiratory Questionnaire - Questions about what activities usually make you feel breathless: Walking around the house.", "preferredTerm": "SGRQ-C - Feel Breathless Walking Around the House", "submissionValue": "SGRQC111", "synonyms": ["SGRQC1-Walking Around the House"]}, {"conceptId": "C106864", "definition": "St. George's Respiratory Questionnaire - Questions about what activities usually make you feel breathless: Walking outside on level ground.", "preferredTerm": "SGRQ-C - Feel Breathless Walking Outside on Level Ground", "submissionValue": "SGRQC112", "synonyms": ["SGRQC1-Walking Outside on Level Ground"]}, {"conceptId": "C106865", "definition": "St. George's Respiratory Questionnaire - Questions about what activities usually make you feel breathless: Walking up a flight of stairs.", "preferredTerm": "SGRQ-C - Feel Breathless Walking Up a Flight of Stairs", "submissionValue": "SGRQC113", "synonyms": ["SGRQC1-Walking Up a Flight of Stairs"]}, {"conceptId": "C106866", "definition": "St. George's Respiratory Questionnaire - Questions about what activities usually make you feel breathless: Walking up hills.", "preferredTerm": "SGRQ-C - Feel Breathless Walking Up Hills", "submissionValue": "SGRQC114", "synonyms": ["SGRQC1-Walking Up Hills"]}, {"conceptId": "C106867", "definition": "St. George's Respiratory Questionnaire - Some more questions about your cough and breathlessness: Coughing hurts.", "preferredTerm": "SGRQ-C - Coughing Hurts", "submissionValue": "SGRQC115", "synonyms": ["SGRQC1-Coughing Hurts"]}, {"conceptId": "C106868", "definition": "St. George's Respiratory Questionnaire - Some more questions about your cough and breathlessness: Coughing makes me tired.", "preferredTerm": "SGRQ-C - Coughing Makes Me Tired", "submissionValue": "SGRQC116", "synonyms": ["SGRQC1-Coughing Makes Me Tired"]}, {"conceptId": "C106869", "definition": "St. George's Respiratory Questionnaire - Some more questions about your cough and breathlessness: I am short of breath when I talk.", "preferredTerm": "SGRQ-C - Short of Breath When Talk", "submissionValue": "SGRQC117", "synonyms": ["SGRQC1-Short of Breath When Talk"]}, {"conceptId": "C106870", "definition": "St. George's Respiratory Questionnaire - Some more questions about your cough and breathlessness: I am short of breath when I bend over.", "preferredTerm": "SGRQ-C - Short of Breath When Bend Over", "submissionValue": "SGRQC118", "synonyms": ["SGRQC1-Short of Breath When Bend Over"]}, {"conceptId": "C106871", "definition": "St. George's Respiratory Questionnaire - Some more questions about your cough and breathlessness: My coughing or breathing disturbs my sleep.", "preferredTerm": "SGRQ-C - Coughing Disturbs My Sleep", "submissionValue": "SGRQC119", "synonyms": ["SGRQC1-Coughing Disturbs My Sleep"]}, {"conceptId": "C106872", "definition": "St. George's Respiratory Questionnaire - Some more questions about your cough and breathlessness: I get exhausted easily.", "preferredTerm": "SGRQ-C - Get Exhausted Easily", "submissionValue": "SGRQC120", "synonyms": ["SGRQC1-Get Exhausted Easily"]}, {"conceptId": "C106873", "definition": "St. George's Respiratory Questionnaire - Questions about other effects that your respiratory problems may have on you: My cough or breathing is embarrassing in public.", "preferredTerm": "SGRQ-C - Cough Is Embarrassing in Public", "submissionValue": "SGRQC121", "synonyms": ["SGRQC1-Cough Is Embarrassing in Public"]}, {"conceptId": "C107021", "definition": "St. George's Respiratory Questionnaire - Questions about other effects that your respiratory problems may have on you: My respiratory problems are a nuisance to my family, friends or neighbours.", "preferredTerm": "SGRQ-C - Respiratory Problems a Nuisance to Family, Friends or Neighbours", "submissionValue": "SGRQC122", "synonyms": ["SGRQC1-Respiratory Problems a Nuisance"]}, {"conceptId": "C106874", "definition": "St. George's Respiratory Questionnaire - Questions about other effects that your respiratory problems may have on you: I get afraid or panic when I cannot catch my breath.", "preferredTerm": "SGRQ-C - Afraid or Panic When Cannot Catch Breath", "submissionValue": "SGRQC123", "synonyms": ["SGRQC1-Afraid When Cannot Catch Breath"]}, {"conceptId": "C106875", "definition": "St. George's Respiratory Questionnaire - Questions about other effects that your respiratory problems may have on you: I feel that I am not in control of my respiratory problems.", "preferredTerm": "SGRQ-C - Not in Control of Respiratory Problems", "submissionValue": "SGRQC124", "synonyms": ["SGRQC1-Not in Control of Resp Problems"]}, {"conceptId": "C106876", "definition": "St. George's Respiratory Questionnaire - Questions about other effects that your respiratory problems may have on you: I have become frail or an invalid because of my respiratory problems.", "preferredTerm": "SGRQ-C - Become Frail Because of Respiratory Problems", "submissionValue": "SGRQC125", "synonyms": ["SGRQC1-Frail Because of Resp Problems"]}, {"conceptId": "C106877", "definition": "St. George's Respiratory Questionnaire - Questions about other effects that your respiratory problems may have on you: Exercise is not safe for me.", "preferredTerm": "SGRQ-C - Exercise Is Not Safe for Me", "submissionValue": "SGRQC126", "synonyms": ["SGRQC1-Exercise Is Not Safe for Me"]}, {"conceptId": "C106878", "definition": "St. George's Respiratory Questionnaire - Questions about other effects that your respiratory problems may have on you: Everything seems too much of an effort.", "preferredTerm": "SGRQ-C - Everything Seems Too Much Effort", "submissionValue": "SGRQC127", "synonyms": ["SGRQC1-Everything Too Much Effort"]}, {"conceptId": "C106879", "definition": "St. George's Respiratory Questionnaire - These are questions about how your activities might be affected by your respiratory problems: I take a long time to get washed or dressed.", "preferredTerm": "SGRQ-C - Take a Long Time to Get Washed or Dressed", "submissionValue": "SGRQC128", "synonyms": ["SGRQC1-Take a Long Time to Get Washed"]}, {"conceptId": "C106880", "definition": "St. George's Respiratory Questionnaire - These are questions about how your activities might be affected by your respiratory problems: I cannot take a bath or shower, or I take a long time to do it.", "preferredTerm": "SGRQ-C - Cannot Take a Bath or Shower", "submissionValue": "SGRQC129", "synonyms": ["SGRQC1-Cannot Take a Bath or Shower"]}, {"conceptId": "C106881", "definition": "St. George's Respiratory Questionnaire - These are questions about how your activities might be affected by your respiratory problems: I walk slower than other people my age, or I stop to rest.", "preferredTerm": "SGRQ-C - Walk Slower Than Other People My Age", "submissionValue": "SGRQC130", "synonyms": ["SGRQC1-Walk Slow Than Others My Age"]}, {"conceptId": "C106882", "definition": "St. George's Respiratory Questionnaire - These are questions about how your activities might be affected by your respiratory problems: Jobs such as household chores take a long time, or I have to stop to rest.", "preferredTerm": "SGRQ-C - Jobs Take a Long Time", "submissionValue": "SGRQC131", "synonyms": ["SGRQC1-Jobs Take a Long Time"]}, {"conceptId": "C106883", "definition": "St. George's Respiratory Questionnaire - These are questions about how your activities might be affected by your respiratory problems: If I walk up one flight of stairs, I have to go slowly or stop.", "preferredTerm": "SGRQ-C - Walk Up Flight of Stairs Slowly", "submissionValue": "SGRQC132", "synonyms": ["SGRQC1-Walk Up Flight of Stairs Slowly"]}, {"conceptId": "C106884", "definition": "St. George's Respiratory Questionnaire - These are questions about how your activities might be affected by your respiratory problems: If I hurry or walk fast, I have to stop or slow down.", "preferredTerm": "SGRQ-C - If Walk Fast Have to Stop", "submissionValue": "SGRQC133", "synonyms": ["SGRQC1-If I Hurry, I Have to Stop"]}, {"conceptId": "C106885", "definition": "St. George's Respiratory Questionnaire - These are questions about how your activities might be affected by your respiratory problems: My breathing makes it difficult to do things such as walk up hills, carry things up stairs, light gardening such as weeding, dance, bowl or play golf.", "preferredTerm": "SGRQ-C - Difficult to Walk Up Hills", "submissionValue": "SGRQC134", "synonyms": ["SGRQC1-Difficult to Walk Up Hills"]}, {"conceptId": "C106886", "definition": "St. George's Respiratory Questionnaire - These are questions about how your activities might be affected by your respiratory problems: My breathing makes it difficult to do things such as carry heavy loads, dig in the garden or shovel snow, jog or walk briskly (5 miles per hour), play tennis or swim.", "preferredTerm": "SGRQ-C - Difficult to Carry Heavy Loads", "submissionValue": "SGRQC135", "synonyms": ["SGRQC1-Difficult to Carry Heavy Loads"]}, {"conceptId": "C107022", "definition": "St. George's Respiratory Questionnaire - We would like to know how your respiratory problems usually affect your daily life: I cannot play sports or do other physical activities.", "preferredTerm": "SGRQ-C - Respiratory Problems Affect Daily Life: Cannot Play Sports", "submissionValue": "SGRQC136", "synonyms": ["SGRQC1-Cannot Play Sports"]}, {"conceptId": "C107023", "definition": "St. George's Respiratory Questionnaire - We would like to know how your respiratory problems usually affect your daily life: I cannot go out for entertainment or recreation.", "preferredTerm": "SGRQ-C - Respiratory Problems Affect Daily Life: Cannot Go Out for Entertainment", "submissionValue": "SGRQC137", "synonyms": ["SGRQC1-Cannot Go Out for Entertainment"]}, {"conceptId": "C107024", "definition": "St. George's Respiratory Questionnaire - We would like to know how your respiratory problems usually affect your daily life: I cannot go out of the house to do the shopping.", "preferredTerm": "SGRQ-C - Respiratory Problems Affect Daily Life: Cannot Go Out to Do Shopping", "submissionValue": "SGRQC138", "synonyms": ["SGRQC1-Cannot Go Out to Do Shopping"]}, {"conceptId": "C107025", "definition": "St. George's Respiratory Questionnaire - We would like to know how your respiratory problems usually affect your daily life: I cannot do household chores.", "preferredTerm": "SGRQ-C - Respiratory Problems Affect Daily Life: Cannot Do Household Chores", "submissionValue": "SGRQC139", "synonyms": ["SGRQC1-Cannot Do Household Chores"]}, {"conceptId": "C107026", "definition": "St. George's Respiratory Questionnaire - We would like to know how your respiratory problems usually affect your daily life: I cannot move far from my bed or chair.", "preferredTerm": "SGRQ-C - Respiratory Problems Affect Daily Life: Cannot Move Far From Bed", "submissionValue": "SGRQC140", "synonyms": ["SGRQC1-Cannot Move Far From My Bed"]}, {"conceptId": "C106887", "definition": "St. George's Respiratory Questionnaire - How do your respiratory problems affect you?", "preferredTerm": "SGRQ-C - How Respiratory Problems Affect You", "submissionValue": "SGRQC141", "synonyms": ["SGRQC1-How Resp Problems Affect You"]}]}