{"_links": {"parentPackage": {"href": "/mdr/ct/packages/sdtmct-2020-11-06", "title": "SDTM Controlled Terminology Package 43 Effective 2020-11-06", "type": "Terminology"}, "priorVersion": {"href": "/mdr/ct/packages/sdtmct-2020-06-26/codelists/C106654", "title": "CDISC Clinical Classification BDI Test Name Terminology", "type": "Code List"}, "rootItem": {"href": "/mdr/root/ct/sdtmct/codelists/C106654", "title": "Version-agnostic anchor resource for codelist C106654", "type": "Root Value Domain"}, "self": {"href": "/mdr/ct/packages/sdtmct-2020-11-06/codelists/C106654", "title": "CDISC Clinical Classification BDI Test Name Terminology", "type": "Code List"}}, "conceptId": "C106654", "definition": "Baseline Dyspnea Index test name.", "extensible": "false", "name": "Baseline Dyspnea Index Clinical Classification Test Name", "preferredTerm": "CDISC Clinical Classification BDI Test Name Terminology", "submissionValue": "BDI01TN", "synonyms": ["Baseline Dyspnea Index Clinical Classification Test Name"], "terms": [{"conceptId": "C161764", "definition": "Baseline Dyspnea Index - Baseline focal score.", "preferredTerm": "BDI - Baseline Focal Score", "submissionValue": "BDI01-Baseline Focal Score", "synonyms": ["BDI01-Baseline Focal Score"]}, {"conceptId": "C106701", "definition": "Baseline Dyspnea Index - Functional impairment.", "preferredTerm": "BDI - Functional Impairment", "submissionValue": "BDI01-Functional Impairment", "synonyms": ["BDI01-Functional Impairment"]}, {"conceptId": "C106703", "definition": "Baseline Dyspnea Index - Magnitude of effort.", "preferredTerm": "BDI - Magnitude of Effort", "submissionValue": "BDI01-Magnitude of Effort", "synonyms": ["BDI01-Magnitude of Effort"]}, {"conceptId": "C106702", "definition": "Baseline Dyspnea Index - Magnitude of task.", "preferredTerm": "BDI - Magnitude of Task", "submissionValue": "BDI01-Magnitude of Task", "synonyms": ["BDI01-Magnitude of Task"]}]}