{"_links": {"parentPackage": {"href": "/mdr/ct/packages/sdtmct-2020-11-06", "title": "SDTM Controlled Terminology Package 43 Effective 2020-11-06", "type": "Terminology"}, "priorVersion": {"href": "/mdr/ct/packages/sdtmct-2020-06-26/codelists/C116106", "title": "CDISC SDTM Pharmacogenomics Findings Test Code Terminology", "type": "Code List"}, "rootItem": {"href": "/mdr/root/ct/sdtmct/codelists/C116106", "title": "Version-agnostic anchor resource for codelist C116106", "type": "Root Value Domain"}, "self": {"href": "/mdr/ct/packages/sdtmct-2020-11-06/codelists/C116106", "title": "CDISC SDTM Pharmacogenomics Findings Test Code Terminology", "type": "Code List"}}, "conceptId": "C116106", "definition": "Terminology relevant to the test codes that describe pharmacogenomics findings.", "extensible": "true", "name": "Pharmacogenomics Findings Test Code", "preferredTerm": "CDISC SDTM Pharmacogenomics Findings Test Code Terminology", "submissionValue": "PFTESTCD", "synonyms": ["Pharmacogenomics Findings Test Code"], "terms": [{"conceptId": "C16277", "definition": "The determination of which version of the gene is on each chromosome.", "preferredTerm": "Allele", "submissionValue": "ALLELE", "synonyms": ["Allele"]}, {"conceptId": "C132433", "definition": "A subgroup of alleles of a polymorphic gene that may form clusters (e.g., phylogenetic) based on high sequence similarity, which may include either a shared single nucleotide polymorphism or a shared set of polymorphic sites. (CDISC)", "preferredTerm": "Allelic Family", "submissionValue": "ALLFAM", "synonyms": ["Allelic Family"]}, {"conceptId": "C132434", "definition": "The number of base pairs present in an RNA or DNA sequence that is the product of an amplification process.", "preferredTerm": "Amplicon Size", "submissionValue": "AMPLSZ", "synonyms": ["Amplicon Size"]}, {"conceptId": "C18280", "definition": "The determination of the holistic or specific regional aberrations in a chromosome (insertions, deletions, amplifications, translocations).", "preferredTerm": "Cytogenetic Analysis", "submissionValue": "CHROMAB", "synonyms": ["Chromosomal Aberration"]}, {"conceptId": "C49142", "definition": "The number of molecules of a particular type on or in a cell or part of a cell. Usually applied to specific genes or to plasmids within a bacterium.", "preferredTerm": "Copy Number", "submissionValue": "COPYNUM", "synonyms": ["Copy Number"]}, {"conceptId": "C60693", "definition": "An indication of the magnitude difference between two values specified as the number of multiples of the first value to the second value (e.g., from 10 to 20 is a 2-fold increase, from 10 to 50 is a five-fold increase). (NCI)", "preferredTerm": "Fold Change", "submissionValue": "FOLDCHG", "synonyms": ["Fold Change"]}, {"conceptId": "C135484", "definition": "The determination of the level of gene transcription in a biological specimen.", "preferredTerm": "Gene Expression Level Analysis", "submissionValue": "GENEXPR", "synonyms": ["Gene Expression"]}, {"conceptId": "C45447", "definition": "The determination of the nucleotide sequence of the genetic material of an individual.", "preferredTerm": "Genotyping", "submissionValue": "GENOTYPE", "synonyms": ["Genotype"]}, {"conceptId": "C18302", "definition": "The determination of the variation(s) in the nucleotide sequence of the genetic material of an individual as compared to a reference sequence.", "preferredTerm": "Genetic Variation Analysis", "submissionValue": "GENVAR", "synonyms": ["Genetic Variation"]}, {"conceptId": "C41255", "definition": "An act or process of elucidation; explication, or explanation of the meaning of the event or thing via the assignment of objects from the domain to the constants of a formal language, truth-values to the proposition symbols, truth-functions to the connectives, other functions to the function symbols, and extensions to the predicates, if any. The assignments are result of human logic application and are not native to the symbols of the formal language.", "preferredTerm": "Interpretation", "submissionValue": "INTP", "synonyms": ["Interpretation"]}, {"conceptId": "C139286", "definition": "An assessment of the variability in length of an individual microsatellite sequence.", "preferredTerm": "Microsatellite Stability Assessment", "submissionValue": "MICRISTB", "synonyms": ["Microsatellite Instability"]}, {"conceptId": "C63332", "definition": "An assessment of the microsatellite repeat sequences within the genome, or a particular part of the genome.", "preferredTerm": "Polymorphic Microsatellite Marker Analysis", "submissionValue": "MICSATRP", "synonyms": ["Microsatellite Repeats"]}, {"conceptId": "C139285", "definition": "The overall state or condition of the variability in length of multiple, assessed microsatellite sequences.", "preferredTerm": "Microsatellite Instability Overall Status", "submissionValue": "MSIOSTAT", "synonyms": ["Microsatellite Instability Overall Stat", "Microsatellite Instability Overall Status"]}, {"conceptId": "C139283", "definition": "The total number of nucleotide repeat markers tested that exhibit instability in a biological specimen. (NCI)", "preferredTerm": "Number of Nucleotide Markers Exhibiting Instability", "submissionValue": "NUMMISTB", "synonyms": ["Num Nuc Markers Exhibit Instability", "Number of Nucleotide Markers Exhibiting Instability"]}, {"conceptId": "C139284", "definition": "The relative measurement (percentage) of nucleotide repeat markers exhibiting instability to all nucleotide repeat markers tested in a biological specimen. (NCI)", "preferredTerm": "Percent of Nucleotide Markers Exhibiting Instability", "submissionValue": "PCTMISTB", "synonyms": ["Pct Nuc Markers Exhibit Instability", "Percent of Nucleotide Markers Exhibiting Instability"]}]}