{"_links": {"parentPackage": {"href": "/mdr/ct/packages/sdtmct-2020-11-06", "title": "SDTM Controlled Terminology Package 43 Effective 2020-11-06", "type": "Terminology"}, "priorVersion": {"href": "/mdr/ct/packages/sdtmct-2020-06-26/codelists/C117743", "title": "CDISC SDTM Ophthalmic Exam Test Code Terminology", "type": "Code List"}, "rootItem": {"href": "/mdr/root/ct/sdtmct/codelists/C117743", "title": "Version-agnostic anchor resource for codelist C117743", "type": "Root Value Domain"}, "self": {"href": "/mdr/ct/packages/sdtmct-2020-11-06/codelists/C117743", "title": "CDISC SDTM Ophthalmic Exam Test Code Terminology", "type": "Code List"}}, "conceptId": "C117743", "definition": "Terminology relevant to the test codes that describe findings from ophthalmic examinations.", "extensible": "true", "name": "Ophthalmic Exam Test Code", "preferredTerm": "CDISC SDTM Ophthalmic Exam Test Code Terminology", "submissionValue": "OETESTCD", "synonyms": ["Ophthalmic Exam Test Code"], "terms": [{"conceptId": "C117889", "definition": "A measurement of the location, in degrees, of the flatter principal meridian on a 180-degree scale, where 90 degrees designates the vertical meridian and 180 degrees designates the horizontal meridian.", "preferredTerm": "Astigmatism Axis", "submissionValue": "ASTAXIS", "synonyms": ["Astigmatism Axis"]}, {"conceptId": "C120538", "definition": "A measurement of the number of cells contained in a unit of volume.", "preferredTerm": "Cell Density", "submissionValue": "CELLDENS", "synonyms": ["Cell Density"]}, {"conceptId": "C120710", "definition": "The maximum number in a group of values that represent the cell density.", "preferredTerm": "Maximum Cell Density", "submissionValue": "CELLDMAX", "synonyms": ["Cell Density, Maximum"]}, {"conceptId": "C120711", "definition": "The minimum number in a group of values that represent the cell density.", "preferredTerm": "Minimum Cell Density", "submissionValue": "CELLDMIN", "synonyms": ["Cell Density, Minimum"]}, {"conceptId": "C120712", "definition": "The mean number in a group of values that represent the cell density.", "preferredTerm": "Mean Cell Density", "submissionValue": "CELLDMN", "synonyms": ["Cell Density, Mean"]}, {"conceptId": "C120713", "definition": "The standard deviation in a group of values that represent the cell density.", "preferredTerm": "Standard Deviation of Cell Density", "submissionValue": "CELLDSD", "synonyms": ["Cell Density, Standard Deviation"]}, {"conceptId": "C37927", "definition": "The appearance of objects (or light sources) described in terms of a person's perception of their hue and lightness (or brightness) and saturation. (NCI)", "preferredTerm": "Color", "submissionValue": "COLOR", "synonyms": ["Color"]}, {"conceptId": "C120714", "definition": "The ratio of the diameter of the optic cup compared to the diameter of the optic disc. (NCI)", "preferredTerm": "Optic Cup to Disc Ratio", "submissionValue": "CUPDISC", "synonyms": ["Cup to Disc Ratio"]}, {"conceptId": "C25285", "definition": "The length of a straight line passing through the center of a circle or sphere and connecting two points on the circumference. (NCI)", "preferredTerm": "Diameter", "submissionValue": "DIAMETER", "synonyms": ["Diameter"]}, {"conceptId": "C120715", "definition": "The minimum number in a group of values that represent the diameter of an object.", "preferredTerm": "Minimum Diameter", "submissionValue": "DIAMMIN", "synonyms": ["Diameter, Minimum"]}, {"conceptId": "C120716", "definition": "The mean number in a group of values that represent the diameter of an object.", "preferredTerm": "Mean Diameter", "submissionValue": "DIAMMN", "synonyms": ["Diameter, Mean"]}, {"conceptId": "C120717", "definition": "The standard deviation in a group of values that represent the diameter of an object.", "preferredTerm": "Standard Deviation of Diameter", "submissionValue": "DIAMSD", "synonyms": ["Diameter, Standard Deviation"]}, {"conceptId": "C147474", "definition": "The position on a scale to assess the degree of comfort associated with the administration of an eye drop.", "preferredTerm": "Eye Drop Comfort Grade", "submissionValue": "EYDCOMGR", "synonyms": ["Eye Drop Comfort Grade"]}, {"conceptId": "C132432", "definition": "The position on a scale to assess hyperemia.", "preferredTerm": "Hyperemia Grade", "submissionValue": "HYPERGR", "synonyms": ["Hyperemia Grade"]}, {"conceptId": "C41255", "definition": "An act or process of elucidation; explication, or explanation of the meaning of the event or thing via the assignment of objects from the domain to the constants of a formal language, truth-values to the proposition symbols, truth-functions to the connectives, other functions to the function symbols, and extensions to the predicates, if any. The assignments are result of human logic application and are not native to the symbols of the formal language.", "preferredTerm": "Interpretation", "submissionValue": "INTP", "synonyms": ["Interpretation"]}, {"conceptId": "C87143", "definition": "The fluid pressure within the eye.", "preferredTerm": "Intraocular Pressure", "submissionValue": "IOP", "synonyms": ["Intraocular Pressure"]}, {"conceptId": "C96684", "definition": "The longest possible length of a straight line passing through the center of a circular or spheroid object that connects two points on the circumference.", "preferredTerm": "Longest Diameter", "submissionValue": "LDIAM", "synonyms": ["Longest Diameter"]}, {"conceptId": "C120718", "definition": "The condition or state of the lens of the eye. (NCI)", "preferredTerm": "Lens Status", "submissionValue": "LENSSTAT", "synonyms": ["Lens Status"]}, {"conceptId": "C117890", "definition": "A number or range of numeric values on the log scale that measures performance, function, quality, or ability.", "preferredTerm": "Log Score", "submissionValue": "LOGSCORE", "synonyms": ["Log Score"]}, {"conceptId": "C142233", "definition": "The smallest angle of separation that allows an image-forming device, including the retina, to distinguish two objects as distinct entities.", "preferredTerm": "Minimum Angle of Resolution", "submissionValue": "MNARS", "synonyms": ["Minimum Angle of Resolution"]}, {"conceptId": "C142351", "definition": "The base-10 logarithm of the minimum angle of resolution achieved by an individual during testing.", "preferredTerm": "Log10 Minimum Angle of Resolution", "submissionValue": "MNARSLOG", "synonyms": ["Minimum Angle of Resolution, Log10"]}, {"conceptId": "C142352", "definition": "The minimum distance from the retina that an object remains in clear focus.", "preferredTerm": "Near-Point Accommodation", "submissionValue": "NRPNTACC", "synonyms": ["Near-Point Accommodation"]}, {"conceptId": "C142353", "definition": "The integer that describes the number of characters read by the subject during an eye chart assessment.", "preferredTerm": "Number of Characters Read", "submissionValue": "NUMCHRRD", "synonyms": ["Number of Characters Read"]}, {"conceptId": "C142354", "definition": "The integer that describes the number of characters not able to be read by the subject during an eye chart assessment.", "preferredTerm": "Number of Characters Unread", "submissionValue": "NUMCHRUR", "synonyms": ["Number of Characters Unread"]}, {"conceptId": "C117891", "definition": "The integer that describes the number of letters correctly identified by the subject during an eye chart assessment.", "preferredTerm": "Number of Correct Eye Chart Letters", "submissionValue": "NUMLCOR", "synonyms": ["Number of Letters Correct"]}, {"conceptId": "C139242", "definition": "The integer that describes the number of lines read by the subject during an eye chart assessment.", "preferredTerm": "Number of Eye Chart Lines Read", "submissionValue": "NUMLINRD", "synonyms": ["Number of Lines Read"]}, {"conceptId": "C142355", "definition": "The integer that describes the number of lines not able to be read by the subject during an eye chart assessment.", "preferredTerm": "Number of Lines Unread", "submissionValue": "NUMLINUR", "synonyms": ["Number of Lines Unread"]}, {"conceptId": "C38060", "definition": "An observation, assessment or examination of the eye.", "preferredTerm": "Eye Examination", "submissionValue": "OEEXAM", "synonyms": ["Ophthalmic Examination"]}, {"conceptId": "C25637", "definition": "A description of the action in response to some kind of stimulus.", "preferredTerm": "Reaction", "submissionValue": "REACTIV", "synonyms": ["Reactivity"]}, {"conceptId": "C117892", "definition": "A measurement of the extent of defect in vision caused by a mismatch of optical power between the cylindrical and horizontal meridians, resulting in sub-optimal reflection of light onto the retina. (NCI)", "preferredTerm": "Cylindrical Refractive Error", "submissionValue": "RECYLDR", "synonyms": ["Cylindrical Refraction Error"]}, {"conceptId": "C117893", "definition": "A measurement of the extent of defect in vision caused by a mismatch of optimal power between the cornea and/or lens and the length of the eyeball, resulting in sub-optimal reflection of light onto the retina. (NCI)", "preferredTerm": "Spherical Refractive Error", "submissionValue": "RESPHERE", "synonyms": ["Spherical Refractive Error"]}, {"conceptId": "C25677", "definition": "The spatial arrangement of something as distinct from its substance. (NCI)", "preferredTerm": "Shape", "submissionValue": "SHAPE", "synonyms": ["Shape"]}, {"conceptId": "C147475", "definition": "The actual distance between the subject and the eye chart during an eye assessment.", "preferredTerm": "Actual Subject to Eye Chart Distance", "submissionValue": "SUBECADT", "synonyms": ["Subject to Eye Chart Actual Distance"]}, {"conceptId": "C147476", "definition": "The planned distance between the subject and the eye chart during an eye assessment.", "preferredTerm": "Planned Subject to Eye Chart Distance", "submissionValue": "SUBECPDT", "synonyms": ["Subject to Eye Chart Planned Distance"]}, {"conceptId": "C172574", "definition": "A measurement of the amount of tear production in a subject.", "preferredTerm": "Tear Secretion Amount", "submissionValue": "TEARSCR", "synonyms": ["Tear Secretion"]}, {"conceptId": "C172575", "definition": "A measurement of the amount of tears being secreted over a defined amount of time (e.g. 5 minutes).", "preferredTerm": "Tear Secretion Rate", "submissionValue": "TEARSCRR", "synonyms": ["Tear Secretion Rate"]}, {"conceptId": "C41145", "definition": "The dimension between two surfaces of an object, usually the smallest dimension as opposed to the width or the length.", "preferredTerm": "Thickness", "submissionValue": "THICK", "synonyms": ["Thickness"]}, {"conceptId": "C120719", "definition": "The maximum number in a group of values that represent the thickness of an object.", "preferredTerm": "Maximum Thickness", "submissionValue": "THICKMAX", "synonyms": ["Thickness, Maximum"]}, {"conceptId": "C120720", "definition": "The minimum number in a group of values that represent the thickness of an object.", "preferredTerm": "Minimum Thickness", "submissionValue": "THICKMIN", "synonyms": ["Thickness, Minimum"]}, {"conceptId": "C120721", "definition": "The mean number in a group of values that represent the thickness of an object.", "preferredTerm": "Mean Thickness", "submissionValue": "THICKMN", "synonyms": ["Thickness, Mean"]}, {"conceptId": "C120722", "definition": "The standard deviation in a group of values that represent the thickness of an object.", "preferredTerm": "Standard Deviation of Thickness", "submissionValue": "THICKSD", "synonyms": ["Thickness, Standard Deviation"]}, {"conceptId": "C147477", "definition": "A measurement of the number of horizontal or vertical lines within a pre-determined unit of length on a visual acuity card.", "preferredTerm": "Acuity Card Grating Frequency", "submissionValue": "VACGRFRQ", "synonyms": ["Visual Acuity Card Grating Frequency"]}]}