{"_links": {"parentPackage": {"href": "/mdr/ct/packages/sdtmct-2020-11-06", "title": "SDTM Controlled Terminology Package 43 Effective 2020-11-06", "type": "Terminology"}, "priorVersion": {"href": "/mdr/ct/packages/sdtmct-2020-06-26/codelists/C120987", "title": "CDISC Clinical Classification BODE Index Test Code Terminology", "type": "Code List"}, "rootItem": {"href": "/mdr/root/ct/sdtmct/codelists/C120987", "title": "Version-agnostic anchor resource for codelist C120987", "type": "Root Value Domain"}, "self": {"href": "/mdr/ct/packages/sdtmct-2020-11-06/codelists/C120987", "title": "CDISC Clinical Classification BODE Index Test Code Terminology", "type": "Code List"}}, "conceptId": "C120987", "definition": "The Body-Mass Index, Airflow Obstruction, Dyspnea, and Exercise Capacity Index test code.", "extensible": "false", "name": "The Body-Mass Index, Airflow Obstruction, Dyspnea, and Exercise Capacity Index Clinical Classification Test Code", "preferredTerm": "CDISC Clinical Classification BODE Index Test Code Terminology", "submissionValue": "BODE01TC", "synonyms": ["The Body-Mass Index, Airflow Obstruction, Dyspnea, and Exercise Capacity Index Clinical Classification Test Code"], "terms": [{"conceptId": "C121063", "definition": "Body-Mass Index, Airflow Obstruction, Dyspnea, and Exercise Capacity Index - Body-mass index.", "preferredTerm": "BODE Index - Body-mass Index", "submissionValue": "BODE0101", "synonyms": ["BODE01-Body-mass Index"]}, {"conceptId": "C121064", "definition": "Body-Mass Index, Airflow Obstruction, Dyspnea, and Exercise Capacity Index - FEV1 (% of predicted).", "preferredTerm": "BODE Index - FEV1 Percent Predicted", "submissionValue": "BODE0102", "synonyms": ["BODE01-FEV1 % Predicted"]}, {"conceptId": "C121065", "definition": "Body-Mass Index, Airflow Obstruction, Dyspnea, and Exercise Capacity Index - MMRC dyspnea scale.", "preferredTerm": "BODE Index - MMRC Dyspnea Scale", "submissionValue": "BODE0103", "synonyms": ["BODE01-MMRC Dyspnea Scale"]}, {"conceptId": "C121066", "definition": "Body-Mass Index, Airflow Obstruction, Dyspnea, and Exercise Capacity Index - Distance walked in 6 min (in meter).", "preferredTerm": "BODE Index - Distance Walked in 6 Minutes", "submissionValue": "BODE0104", "synonyms": ["BODE01-Distance Walked in 6 Minutes"]}, {"conceptId": "C121067", "definition": "Body-Mass Index, Airflow Obstruction, Dyspnea, and Exercise Capacity Index - BODE score.", "preferredTerm": "BODE Index - Score", "submissionValue": "BODE0105", "synonyms": ["BODE01-BODE Score"]}]}