{"_links": {"parentPackage": {"href": "/mdr/ct/packages/sdtmct-2020-11-06", "title": "SDTM Controlled Terminology Package 43 Effective 2020-11-06", "type": "Terminology"}, "priorVersion": {"href": "/mdr/ct/packages/sdtmct-2020-06-26/codelists/C120528", "title": "CDISC SDTM Microbiology Test Name Terminology", "type": "Code List"}, "rootItem": {"href": "/mdr/root/ct/sdtmct/codelists/C120528", "title": "Version-agnostic anchor resource for codelist C120528", "type": "Root Value Domain"}, "self": {"href": "/mdr/ct/packages/sdtmct-2020-11-06/codelists/C120528", "title": "CDISC SDTM Microbiology Test Name Terminology", "type": "Code List"}}, "conceptId": "C120528", "definition": "Terminology relevant to the microbiology test names of the CDISC Study Data Tabulation Model.", "extensible": "true", "name": "Microbiology Test Name", "preferredTerm": "CDISC SDTM Microbiology Test Name Terminology", "submissionValue": "MBTEST", "synonyms": ["Microbiology Test Name"], "terms": [{"conceptId": "C166025", "definition": "A classification of the amount of Alternaria alternata antigen IgE antibody, using the RAST (radioallergosorbent test) scoring system, in a biological specimen.", "preferredTerm": "Alternaria alternata IgE Antibody RAST Score Measurement", "submissionValue": "A. alternata IgE AB RAST Score", "synonyms": ["A. tenuis alternata IgE AB RAST Score"]}, {"conceptId": "C166021", "definition": "A classification of the amount of Alternaria alternata antigen IgG antibody, using the RAST (radioallergosorbent test) scoring system, in a biological specimen.", "preferredTerm": "Alternaria alternata IgG Antibody RAST Score Measurement", "submissionValue": "A. alternata IgG AB RAST Score", "synonyms": ["A. tenuis alternata IgG AB RAST Score"]}, {"conceptId": "C166023", "definition": "A classification of the amount of A. fumigatus antigen IgE antibody, using the RAST (radioallergosorbent test) scoring system, in a biological specimen.", "preferredTerm": "Aspergillus fumigatus IgE Antibody RAST Score Measurement", "submissionValue": "A. fumigatus IgE AB RAST Score", "synonyms": ["A. fumigatus IgE AB RAST Score"]}, {"conceptId": "C166019", "definition": "A classification of the amount of A. fumigatus antigen IgG antibody, using the RAST (radioallergosorbent test) scoring system, in a biological specimen.", "preferredTerm": "Aspergillus fumigatus IgG Antibody RAST Score Measurement", "submissionValue": "A. fumigatus IgG AB RAST Score", "synonyms": ["A. fumigatus IgG AB RAST Score"]}, {"conceptId": "C172529", "definition": "A measurement of the Achromobacter xylosoxidans in a biological specimen.", "preferredTerm": "Achromobacter xylosoxidans Measurement", "submissionValue": "Achromobacter xylosoxidans", "synonyms": ["Achromobacter xylosoxidans"]}, {"conceptId": "C128981", "definition": "A measurement of any rod-shaped bacteria that resist decolorizing by acid after accepting an aqueous stain solution, due to the mycolic acids in their cell walls.", "preferredTerm": "Acid-Fast Bacilli Measurement", "submissionValue": "Acid-Fast Bacilli", "synonyms": ["Acid-Fast Bacilli"]}, {"conceptId": "C171498", "definition": "A measurement of the adenoviridae in a biological specimen.", "preferredTerm": "Adenoviridae Measurement", "submissionValue": "Adenoviridae", "synonyms": ["Adenoviridae", "Adenovirus"]}, {"conceptId": "C111125", "definition": "A measurement of the adenovirus antibody in a biological specimen.", "preferredTerm": "Adenovirus Antibody Measurement", "submissionValue": "Adenovirus Antibody", "synonyms": ["Adenovirus Antibody"]}, {"conceptId": "C154830", "definition": "A measurement of the Adenovirus antigen in a biological specimen.", "preferredTerm": "Adenovirus Antigen Measurement", "submissionValue": "Adenovirus Antigen", "synonyms": ["Adenovirus Antigen"]}, {"conceptId": "C163529", "definition": "A measurement of the adenovirus IgG antibody in a biological specimen.", "preferredTerm": "Adenovirus IgG Antibody Measurement", "submissionValue": "Adenovirus IgG Antibody", "synonyms": ["Adenovirus IgG Antibody"]}, {"conceptId": "C163530", "definition": "A measurement of the adenovirus IgM antibody in a biological specimen.", "preferredTerm": "Adenovirus IgM Antibody Measurement", "submissionValue": "Adenovirus IgM Antibody", "synonyms": ["Adenovirus IgM Antibody"]}, {"conceptId": "C130151", "definition": "A measurement of the Alternaria alternata IgA antibody in a biological specimen.", "preferredTerm": "Alternaria tenuis alternata Antigen IgA Antibody Measurement", "submissionValue": "Alternaria alternata IgA Antibody", "synonyms": ["Alternaria alternata IgA Antibody", "Alternaria tenuis IgA Antibody"]}, {"conceptId": "C130150", "definition": "A measurement of the Alternaria alternata IgE antibody in a biological specimen.", "preferredTerm": "Alternaria tenuis alternata Antigen IgE Antibody Measurement", "submissionValue": "Alternaria alternata IgE Antibody", "synonyms": ["Alternaria alternata IgE Antibody", "Alternaria tenuis IgE Antibody"]}, {"conceptId": "C130152", "definition": "A measurement of the Alternaria alternata IgG antibody in a biological specimen.", "preferredTerm": "Alternaria tenuis alternata Antigen IgG Antibody Measurement", "submissionValue": "Alternaria alternata IgG Antibody", "synonyms": ["Alternaria alternata IgG Antibody", "Alternaria tenuis IgG Antibody"]}, {"conceptId": "C130153", "definition": "A measurement of the Alternaria alternata IgG4 antibody in a biological specimen.", "preferredTerm": "Alternaria tenuis alternata Antigen IgG4 Antibody Measurement", "submissionValue": "Alternaria alternata IgG4 Antibody", "synonyms": ["Alternaria alternata IgG4 Antibody", "Alternaria tenuis IgG4 Antibody"]}, {"conceptId": "C81976", "definition": "A measurement of the anti-Saccharomyces cerevisiae antibody in a biological specimen.", "preferredTerm": "Anti-Saccharomyces cerevisiae Antibody Measurement", "submissionValue": "Anti-Saccharomyces cerevisiae Antibody", "synonyms": ["Anti-Saccharomyces cerevisiae Antibody", "Baker's Yeast Antibody"]}, {"conceptId": "C172528", "definition": "A measurement of the organisms that are not assigned to the species level but are assigned to the Aspergillus genus level in a biological specimen.", "preferredTerm": "Aspergillus Measurement", "submissionValue": "Aspergillus", "synonyms": ["Aspergillus"]}, {"conceptId": "C166028", "definition": "A measurement of the antibody to any member of the genus Aspergillus in a biological specimen.", "preferredTerm": "Aspergillus Antibody Measurement", "submissionValue": "Aspergillus Antibody", "synonyms": ["Aspergillus Antibody"]}, {"conceptId": "C130144", "definition": "A measurement of the Aspergillus fumigatus IgE antibody in a biological specimen.", "preferredTerm": "Aspergillus fumigatus Antigen IgE Antibody Measurement", "submissionValue": "Aspergillus fumigatus IgE Antibody", "synonyms": ["Aspergillus fumigatus IgE Antibody"]}, {"conceptId": "C130145", "definition": "A measurement of the Aspergillus fumigatus IgG antibody in a biological specimen.", "preferredTerm": "Aspergillus fumigatus Antigen IgG Antibody Measurement", "submissionValue": "Aspergillus fumigatus IgG Antibody", "synonyms": ["Aspergillus fumigatus IgG Antibody"]}, {"conceptId": "C147310", "definition": "A measurement of the Borrelia burgdorferi IgG and IgM antibodies in a biological specimen.", "preferredTerm": "Borrelia burgdorferi IgG and IgM Antibody Measurement", "submissionValue": "B. burgdorferi IgG and IgM Antibody", "synonyms": ["B. burgdorferi IgG and IgM Antibody", "Borrelia burgdorferi IgG and IgM Antibody"]}, {"conceptId": "C163532", "definition": "A measurement of the Bordetella pertussis filamentous haemagglutinin antibody in a biological specimen.", "preferredTerm": "Bordetella pertussis Filament Haemagglutinin Antibody Measurement", "submissionValue": "B. pertussis Filament Haemagglutinin AB", "synonyms": ["B. pertussis Filament Haemagglutinin AB", "Bordetella pertussis FHA Antibody", "Bordetella pertussis Filamentous Haemagglutinin Antibody"]}, {"conceptId": "C64469", "definition": "A measurement of the bacteria in a biological specimen.", "preferredTerm": "Bacterial Count", "submissionValue": "Bacteria", "synonyms": ["Bacteria"]}, {"conceptId": "C161400", "definition": "A measurement of the bacterial enzyme beta-lactamase in a biological specimen.", "preferredTerm": "Bacterial Beta-lactamase Measurement", "submissionValue": "Bacterial Beta-lactamase", "synonyms": ["Bacterial Beta-lactamase"]}, {"conceptId": "C154820", "definition": "A measurement of the bacterial sialidase enzyme in a biological specimen.", "preferredTerm": "Bacterial Sialidase Measurement", "submissionValue": "Bacterial Sialidase", "synonyms": ["Bacterial Sialidase"]}, {"conceptId": "C160937", "definition": "A measurement of the beta-lactamase negative bacteria in a biological specimen.", "preferredTerm": "Beta-lactamase Negative Bacteria Measurement", "submissionValue": "Beta-lactamase Negative Bacteria", "synonyms": ["Beta-lactamase Negative Bacteria"]}, {"conceptId": "C160936", "definition": "A measurement of the beta-lactamase positive bacteria in a biological specimen.", "preferredTerm": "Beta-lactamase Positive Bacteria Measurement", "submissionValue": "Beta-lactamase Positive Bacteria", "synonyms": ["Beta-lactamase Positive Bacteria"]}, {"conceptId": "C154832", "definition": "A measurement of the Bordetella pertussis antigen in a biological specimen.", "preferredTerm": "Bordetella pertussis Antigen Measurement", "submissionValue": "Bordetella pertussis Antigen", "synonyms": ["Bordetella pertussis Antigen"]}, {"conceptId": "C163533", "definition": "A measurement of the Bordetella pertussis pertactin antibody in a biological specimen.", "preferredTerm": "Bordetella pertussis Pertactin Antibody Measurement", "submissionValue": "Bordetella pertussis Pertactin Antibody", "synonyms": ["Bordetella pertussis PRN Antibody", "Bordetella pertussis Pertactin Antibody"]}, {"conceptId": "C163531", "definition": "A measurement of the Bordetella pertussis serotypes fimbriae 2 and/or fimbriae 3 antibody in a biological specimen.", "preferredTerm": "Bordetella pertussis Serotype Fimbrae 2/3 Antibody Measurement", "submissionValue": "Bordetella pertussis Serotype Fim 2/3 AB", "synonyms": ["Bordetella pertussis Serotype Fim 2/3 AB", "Bordetella pertussis Serotype Fimbriae 2/3 Antibody"]}, {"conceptId": "C163534", "definition": "A measurement of the Bordetella pertussis toxin antibody in a biological specimen.", "preferredTerm": "Bordetella pertussis Toxin Antibody Measurement", "submissionValue": "Bordetella pertussis Toxin Antibody", "synonyms": ["Bordetella pertussis Toxin Antibody"]}, {"conceptId": "C122098", "definition": "A measurement of the total Borrelia burgdorferi antibody in a biological specimen.", "preferredTerm": "Borrelia Burgdorferi Antibody Measurement", "submissionValue": "Borrelia burgdorferi Antibody", "synonyms": ["Borrelia burgdorferi Antibody", "Lyme Antibody"]}, {"conceptId": "C122099", "definition": "A measurement of the Borrelia burgdorferi IgA antibody in a biological specimen.", "preferredTerm": "Borrelia Burgdorferi IgA Antibody Measurement", "submissionValue": "Borrelia burgdorferi IgA Antibody", "synonyms": ["Borrelia burgdorferi IgA Antibody", "Lyme IgA Antibody"]}, {"conceptId": "C122100", "definition": "A measurement of the Borrelia burgdorferi IgG antibody in a biological specimen.", "preferredTerm": "Borrelia Burgdorferi IgG Antibody Measurement", "submissionValue": "Borrelia burgdorferi IgG Antibody", "synonyms": ["Borrelia burgdorferi IgG Antibody", "Lyme IgG Antibody"]}, {"conceptId": "C122101", "definition": "A measurement of the Borrelia burgdorferi IgM antibody in a biological specimen.", "preferredTerm": "Borrelia Burgdorferi IgM Antibody Measurement", "submissionValue": "Borrelia burgdorferi IgM Antibody", "synonyms": ["Borrelia burgdorferi IgM Antibody", "Lyme IgM Antibody"]}, {"conceptId": "C139113", "definition": "A measurement of the organisms that are not assigned to the species level but are assigned to the Burkholderia genus level in a biological specimen.", "preferredTerm": "Burkholderia Measurement", "submissionValue": "Burkholderia", "synonyms": ["Burkholderia"]}, {"conceptId": "C172535", "definition": "A measurement of the Burkholderia ambifaria in a biological specimen.", "preferredTerm": "Burkholderia ambifaria Measurement", "submissionValue": "Burkholderia ambifaria", "synonyms": ["Burkholderia ambifaria"]}, {"conceptId": "C172536", "definition": "A measurement of the Burkholderia anthina in a biological specimen.", "preferredTerm": "Burkholderia anthina Measurement", "submissionValue": "Burkholderia anthina", "synonyms": ["Burkholderia anthina"]}, {"conceptId": "C172531", "definition": "A measurement of the Burkholderia cenocepacia in a biological specimen.", "preferredTerm": "Burkholderia cenocepacia Measurement", "submissionValue": "Burkholderia cenocepacia", "synonyms": ["Burkholderia cenocepacia"]}, {"conceptId": "C147456", "definition": "A measurement of the Burkholderia cepacia in a biological specimen.", "preferredTerm": "Burkholderia cepacia Measurement", "submissionValue": "Burkholderia cepacia", "synonyms": ["B. cepacia", "Burkholderia cepacia", "Pseudomonas cepacia"]}, {"conceptId": "C172534", "definition": "A measurement of the Burkholderia dolosa in a biological specimen.", "preferredTerm": "Burkholderia dolosa Measurement", "submissionValue": "Burkholderia dolosa", "synonyms": ["Burkholderia dolosa"]}, {"conceptId": "C172530", "definition": "A measurement of the Burkholderia multivorans in a biological specimen.", "preferredTerm": "Burkholderia multivorans Measurement", "submissionValue": "Burkholderia multivorans", "synonyms": ["Burkholderia multivorans"]}, {"conceptId": "C172537", "definition": "A measurement of the Burkholderia pyrrocinia in a biological specimen.", "preferredTerm": "Burkholderia pyrrocinia Measurement", "submissionValue": "Burkholderia pyrrocinia", "synonyms": ["Burkholderia pyrrocinia"]}, {"conceptId": "C172532", "definition": "A measurement of the Burkholderia stabilis in a biological specimen.", "preferredTerm": "Burkholderia stabilis Measurement", "submissionValue": "Burkholderia stabilis", "synonyms": ["Burkholderia stabilis"]}, {"conceptId": "C172533", "definition": "A measurement of the Burkholderia vietnamiensis in a biological specimen.", "preferredTerm": "Burkholderia vietnamiensis Measurement", "submissionValue": "Burkholderia vietnamiensis", "synonyms": ["Burkholderia vietnamiensis"]}, {"conceptId": "C166015", "definition": "A measurement of the Campylobacter coli, Campylobacter jejuni and/or Campylobacter upsaliensis DNA in a biological specimen.", "preferredTerm": "Campylobacter coli, Campylobacter jejuni and/or Campylobacter upsaliensis DNA Measurement", "submissionValue": "C. coli/jejuni/upsaliensis DNA", "synonyms": ["C. coli/jejuni/upsaliensis DNA", "Campylobacter coli/jejuni/upsaliensis DNA"]}, {"conceptId": "C150857", "definition": "A measurement of the Clostridium difficile glutamate dehydrogenase in a biological specimen.", "preferredTerm": "C. difficile Glutamate Dehydrogenase Measurement", "submissionValue": "C. difficile Glutamate Dehydrogenase", "synonyms": ["C. difficile Glutamate Dehydrogenase", "Clostridium difficile Glutamate Dehydrogenase"]}, {"conceptId": "C161404", "definition": "A measurement of the Candida albicans in a biological specimen.", "preferredTerm": "Candida albicans Measurement", "submissionValue": "Candida albicans", "synonyms": ["Candida albicans", "Candida stellatoidea"]}, {"conceptId": "C135404", "definition": "A measurement of the Chikungunya virus antibody in a biological specimen.", "preferredTerm": "Chikungunya Virus Antibody Measurement", "submissionValue": "Chikungunya Virus Antibody", "synonyms": ["Chikungunya Virus Antibody"]}, {"conceptId": "C172527", "definition": "A measurement of the organisms that are not assigned to the species level but are assigned to the Chlamydia genus level in a biological specimen.", "preferredTerm": "Chlamydia Measurement", "submissionValue": "Chlamydia", "synonyms": ["Chlamydia"]}, {"conceptId": "C92432", "definition": "A measurement of the Chlamydia pneumoniae IgA antibody in a biological specimen.", "preferredTerm": "Chlamydia pneumoniae IgA Antibody Measurement", "submissionValue": "Chlamydia pneumoniae IgA Antibody", "synonyms": ["Chlamydia pneumoniae IgA Antibody"]}, {"conceptId": "C163536", "definition": "A measurement of the Chlamydia pneumoniae IgG antibody in a biological specimen.", "preferredTerm": "Chlamydia pneumoniae IgG Antibody Measurement", "submissionValue": "Chlamydia pneumoniae IgG Antibody", "synonyms": ["Chlamydia pneumoniae IgG Antibody", "Chlamydophila pneumoniae IgG Antibody"]}, {"conceptId": "C92433", "definition": "A measurement of the Chlamydia pneumoniae IgM in a biological specimen.", "preferredTerm": "Chlamydia pneumoniae IgM Antibody Measurement", "submissionValue": "Chlamydia pneumoniae IgM Antibody", "synonyms": ["Chlamydia pneumoniae IgM Antibody"]}, {"conceptId": "C154835", "definition": "A measurement of the Chlamydia trachomatis antigen in a biological specimen.", "preferredTerm": "Chlamydia trachomatis Antigen Measurement", "submissionValue": "Chlamydia trachomatis Antigen", "synonyms": ["Chlamydia trachomatis Antigen"]}, {"conceptId": "C161392", "definition": "A measurement of the Chlamydia trachomatis DNA in a biological specimen.", "preferredTerm": "Chlamydia trachomatis DNA Measurement", "submissionValue": "Chlamydia trachomatis DNA", "synonyms": ["Chlamydia trachomatis DNA"]}, {"conceptId": "C100464", "definition": "A measurement of the Chlamydia trachomatis IgA antibody in a biological specimen.", "preferredTerm": "Chlamydia trachomatis IgA Antibody Measurement", "submissionValue": "Chlamydia trachomatis IgA Antibody", "synonyms": ["Chlamydia trachomatis IgA Antibody"]}, {"conceptId": "C100466", "definition": "A measurement of the Chlamydia trachomatis IgG antibody in a biological specimen.", "preferredTerm": "Chlamydia trachomatis IgG Antibody Measurement", "submissionValue": "Chlamydia trachomatis IgG Antibody", "synonyms": ["Chlamydia trachomatis IgG Antibody"]}, {"conceptId": "C100465", "definition": "A measurement of the Chlamydia trachomatis IgM antibody in a biological specimen.", "preferredTerm": "Chlamydia trachomatis IgM Antibody Measurement", "submissionValue": "Chlamydia trachomatis IgM Antibody", "synonyms": ["Chlamydia trachomatis IgM Antibody"]}, {"conceptId": "C116194", "definition": "A measurement of the cholera toxin B subunit IgG antibody in a biological specimen.", "preferredTerm": "Cholera Toxin B Subunit IgG Antibody Measurement", "submissionValue": "Cholera Toxin B Subunit IgG Antibody", "synonyms": ["Cholera Toxin B Subunit IgG Antibody"]}, {"conceptId": "C166026", "definition": "A classification of the amount of Cladosporium herbarum IgE antibody, using the RAST (radioallergosorbent test) scoring system, in a biological specimen.", "preferredTerm": "Cladosporium herbarum IgE Antibody RAST Score Measurement", "submissionValue": "Cladosporium herbarum IgE AB RAST Score", "synonyms": ["Cladosporium herbarum IgE AB RAST Score"]}, {"conceptId": "C147286", "definition": "A measurement of the Cladosporium herbarum antigen IgE antibody in a biological specimen.", "preferredTerm": "Cladosporium herbarum IgE Antibody Measurement", "submissionValue": "Cladosporium herbarum IgE Antibody", "synonyms": ["Cladosporium herbarum IgE Antibody"]}, {"conceptId": "C150637", "definition": "A measurement of the Clostridium difficile in a biological specimen.", "preferredTerm": "Clostridium difficile Measurement", "submissionValue": "Clostridium difficile", "synonyms": ["Clostridium difficile"]}, {"conceptId": "C150639", "definition": "A measurement of the 027/NAP1/BI strain of Clostridium difficile in a biological specimen.", "preferredTerm": "Clostridium difficile 027/NAP1/BI Measurement", "submissionValue": "Clostridium difficile 027/NAP1/BI", "synonyms": ["Clostridium difficile 027/NAP1/BI"]}, {"conceptId": "C150863", "definition": "A measurement of the Clostridium difficile toxin A in a biological specimen.", "preferredTerm": "Clostridium difficile A Toxin Measurement", "submissionValue": "Clostridium difficile A Toxin", "synonyms": ["Clostridium difficile A Toxin"]}, {"conceptId": "C150858", "definition": "A measurement of the Clostridium difficile A and/or B toxin in a biological specimen.", "preferredTerm": "Clostridium difficile A and/or B Toxin Measurement", "submissionValue": "Clostridium difficile A/B Toxin", "synonyms": ["Clostridium difficile A/B Toxin"]}, {"conceptId": "C150864", "definition": "A measurement of the Clostridium difficile toxin B in a biological specimen.", "preferredTerm": "Clostridium difficile B Toxin Measurement", "submissionValue": "Clostridium difficile B Toxin", "synonyms": ["Clostridium difficile B Toxin"]}, {"conceptId": "C150866", "definition": "A measurement of the Clostridium difficile binary toxin (cdt) DNA in a biological specimen.", "preferredTerm": "Clostridium difficile cdt DNA Measurement", "submissionValue": "Clostridium difficile cdt DNA", "synonyms": ["Clostridium difficile cdt DNA"]}, {"conceptId": "C150859", "definition": "A measurement of the Clostridium difficile toxin A (tcdA) DNA in a biological specimen.", "preferredTerm": "Clostridium difficile tcdA DNA Measurement", "submissionValue": "Clostridium difficile tcdA DNA", "synonyms": ["Clostridium difficile tcdA DNA"]}, {"conceptId": "C150860", "definition": "A measurement of the Clostridium difficile toxin B (tcdB) DNA in a biological specimen.", "preferredTerm": "Clostridium difficile tcdB DNA Measurement", "submissionValue": "Clostridium difficile tcdB DNA", "synonyms": ["Clostridium difficile tcdB DNA"]}, {"conceptId": "C150861", "definition": "A measurement of the Clostridium difficile regulatory protein (tcdC) DNA in a biological specimen.", "preferredTerm": "Clostridium difficile tcdC DNA Measurement", "submissionValue": "Clostridium difficile tcdC DNA", "synonyms": ["Clostridium difficile tcdC DNA"]}, {"conceptId": "C103381", "definition": "A measurement of the Clostridium difficile toxin in a biological specimen.", "preferredTerm": "Clostridium difficile Toxin Measurement", "submissionValue": "Clostridium difficile Toxin", "synonyms": ["Clostridium difficile Toxin"]}, {"conceptId": "C103382", "definition": "A measurement of the Clostridium tetani IgG antibody in a biological specimen.", "preferredTerm": "Clostridium tetani IgG Antibody Measurement", "submissionValue": "Clostridium tetani IgG Antibody", "synonyms": ["Clostridium tetani IgG Antibody"]}, {"conceptId": "C163537", "definition": "A measurement of the Clostridium tetani toxin antibody in a biological specimen.", "preferredTerm": "Clostridium tetani Toxin Antibody Measurement", "submissionValue": "Clostridium tetani Toxin Antibody", "synonyms": ["Clostridium tetani TeNT Antibody", "Clostridium tetani Toxin Antibody", "Tetanospasmin Antibody", "Tetanus Neurotoxin Antibody"]}, {"conceptId": "C135406", "definition": "A measurement of the Clostridium tetani toxoid IgG antibody in a biological specimen.", "preferredTerm": "Clostridium tetani Toxoid IgG Antibody Measurement", "submissionValue": "Clostridium tetani Toxoid IgG Antibody", "synonyms": ["Clostridium tetani Toxoid IgG Antibody"]}, {"conceptId": "C111160", "definition": "A measurement of the coccidioides antibody in a biological specimen.", "preferredTerm": "Coccidioides Antibody Measurement", "submissionValue": "Coccidioides Antibody", "synonyms": ["Coccidioides Antibody"]}, {"conceptId": "C166031", "definition": "A measurement of the IgG antibody from any member of the genus Coccidioides in a biological specimen.", "preferredTerm": "Coccidioides IgG Antibody Measurement", "submissionValue": "Coccidioides IgG Antibody", "synonyms": ["Coccidioides IgG Antibody"]}, {"conceptId": "C166032", "definition": "A measurement of the IgM antibody from any member of the genus Coccidioides in a biological specimen.", "preferredTerm": "Coccidioides IgM Antibody Measurement", "submissionValue": "Coccidioides IgM Antibody", "synonyms": ["Coccidioides IgM Antibody"]}, {"conceptId": "C166030", "definition": "A measurement of the Coccidioides immitis antibody in a biological specimen.", "preferredTerm": "Coccidioides immitis Antibody Measurement", "submissionValue": "Coccidioides immitis Antibody", "synonyms": ["Coccidioides immitis Antibody"]}, {"conceptId": "C171456", "definition": "A measurement of the coronaviridae in a biological specimen.", "preferredTerm": "Coronaviridae Measurement", "submissionValue": "Coronaviridae", "synonyms": ["Coronaviridae", "Coronavirus"]}, {"conceptId": "C163535", "definition": "A measurement of the Corynebacterium diphtheriae toxoid antibody in a biological specimen.", "preferredTerm": "Corynebacterium diphtheriae Toxoid Antibody Measurement", "submissionValue": "Corynebacterium diphtheriae Toxoid Ab", "synonyms": ["Corynebacterium diphtheriae Toxoid Ab"]}, {"conceptId": "C154829", "definition": "A measurement of the antigen from any member of the genus Cryptococcus in a biological specimen.", "preferredTerm": "Cryptococcus Antigen Measurement", "submissionValue": "Cryptococcus Antigen", "synonyms": ["Cryptococcus Antigen"]}, {"conceptId": "C166034", "definition": "A measurement of the antigen from any member of the genus Cryptosporidium in a biological specimen.", "preferredTerm": "Cryptosporidium Antigen Measurement", "submissionValue": "Cryptosporidium Antigen", "synonyms": ["Cryptosporidium Antigen"]}, {"conceptId": "C166033", "definition": "A measurement of the DNA from any member of the genus Cryptosporidium in a biological specimen.", "preferredTerm": "Cryptosporidium DNA Measurement", "submissionValue": "Cryptosporidium DNA", "synonyms": ["Cryptosporidium DNA"]}, {"conceptId": "C154831", "definition": "A measurement of the Cryptosporidium parvum antigen in a biological specimen.", "preferredTerm": "Cryptosporidium parvum Antigen Measurement", "submissionValue": "Cryptosporidium parvum Antigen", "synonyms": ["Cryptosporidium parvum Antigen"]}, {"conceptId": "C166029", "definition": "A measurement of the Cyclospora cayetanensis DNA in a biological specimen.", "preferredTerm": "Cyclospora cayetanensis DNA Measurement", "submissionValue": "Cyclospora cayetanensis DNA", "synonyms": ["Cyclospora cayetanensis DNA"]}, {"conceptId": "C154828", "definition": "A measurement of the Cytomegalovirus antigen in a biological specimen.", "preferredTerm": "Cytomegalovirus Antigen Measurement", "submissionValue": "Cytomegalovirus Antigen", "synonyms": ["Cytomegalovirus Antigen"]}, {"conceptId": "C161394", "definition": "A measurement of the Cytomegalovirus DNA in a biological specimen.", "preferredTerm": "Cytomegalovirus DNA Measurement", "submissionValue": "Cytomegalovirus DNA", "synonyms": ["Cytomegalovirus DNA"]}, {"conceptId": "C96596", "definition": "A measurement of the cytomegalovirus IgG antibody in a biological specimen.", "preferredTerm": "Cytomegalovirus IgG Antibody Measurement", "submissionValue": "Cytomegalovirus IgG Antibody", "synonyms": ["Cytomegalovirus IgG Antibody"]}, {"conceptId": "C96597", "definition": "A measurement of the cytomegalovirus IgM antibody in a biological specimen.", "preferredTerm": "Cytomegalovirus IgM Antibody Measurement", "submissionValue": "Cytomegalovirus IgM Antibody", "synonyms": ["Cytomegalovirus IgM Antibody"]}, {"conceptId": "C170608", "definition": "A measurement of the Cytomegalovirus phosphoprotein 65 (pp65) antigen in a biological specimen.", "preferredTerm": "Cytomegalovirus pp65 Antigen Measurement", "submissionValue": "Cytomegalovirus pp65 Antigen", "synonyms": ["Cytomegalovirus Phosphoprotein 65 Antigen", "Cytomegalovirus pp65 Antigen"]}, {"conceptId": "C147332", "definition": "A measurement of the dengue virus antibody in a biological specimen.", "preferredTerm": "Dengue Virus Antibody Measurement", "submissionValue": "Dengue Virus Antibody", "synonyms": ["Dengue Virus Antibody"]}, {"conceptId": "C103388", "definition": "A measurement of the Corynebacterium diphtheriae IgG antibodies in a biological specimen.", "preferredTerm": "Diphtheria IgG Antibody Measurement", "submissionValue": "Diphtheria IgG Antibody", "synonyms": ["Corynebacterium diphtheriae IgG Antibody", "Diphtheria IgG Antibody"]}, {"conceptId": "C166014", "definition": "A measurement of the enteroaggregative Escherichia coli pAA plasmid aggR and/or aatA DNA in a biological specimen.", "preferredTerm": "Enteroaggregative Escherichia coli pAA Plasmid aggR and/or aatA DNA Measurement", "submissionValue": "EAEC pAA Plasmid aggR/aatA DNA", "synonyms": ["EAEC pAA Plasmid aggR/aatA DNA", "Enteroaggregative Escherichia coli pAA Plasmid aggR/aatA DNA"]}, {"conceptId": "C135410", "definition": "A measurement of the Ebola virus IgM antibodies in a biological specimen.", "preferredTerm": "Ebola Virus IgM Antibody Measurement", "submissionValue": "Ebola Virus IgM Antibody", "synonyms": ["Ebola Virus IgM Antibody"]}, {"conceptId": "C106519", "definition": "An assessment of Epstein-Barr virus infection based on a panel of EBV antigen antibody tests.", "preferredTerm": "Epstein-Barr Virus Infection Status", "submissionValue": "EBV Profile Interpretation", "synonyms": ["Epstein-Barr Virus Antibody Profile", "Epstein-Barr Virus Infection Status", "Epstein-Barr Virus Panel"]}, {"conceptId": "C166036", "definition": "A measurement of the Entamoeba histolytica DNA in a biological specimen.", "preferredTerm": "Entamoeba histolytica DNA Measurement", "submissionValue": "Entamoeba histolytica DNA", "synonyms": ["Entamoeba histolytica DNA"]}, {"conceptId": "C161396", "definition": "A measurement of the Enterococcus faecalis in a biological specimen.", "preferredTerm": "Enterococcus faecalis Measurement", "submissionValue": "Enterococcus faecalis", "synonyms": ["Streptococcus faecalis"]}, {"conceptId": "C172548", "definition": "A measurement of the organisms that are not assigned to the species level but are assigned to the Enterovirus genus level in a biological specimen.", "preferredTerm": "Enterovirus Measurement", "submissionValue": "Enterovirus", "synonyms": ["Enterovirus"]}, {"conceptId": "C166013", "definition": "A measurement of the enteropathogenic Escherichia coli eae DNA in a biological specimen.", "preferredTerm": "Enteropathogenic Escherichia coli eae DNA Measurement", "submissionValue": "EPEC eae DNA", "synonyms": ["EPEC eae DNA", "Enteropathogenic Escherichia coli eae DNA"]}, {"conceptId": "C96600", "definition": "A measurement of the Epstein-Barr capsid IgG antibody in a biological specimen.", "preferredTerm": "Epstein-Barr Capsid IgG Antibody Measurement", "submissionValue": "Epstein-Barr Capsid IgG Antibody", "synonyms": ["Epstein-Barr Capsid IgG Antibody"]}, {"conceptId": "C96601", "definition": "A measurement of the Epstein-Barr capsid IgM antibody in a biological specimen.", "preferredTerm": "Epstein-Barr Capsid IgM Antibody Measurement", "submissionValue": "Epstein-Barr Capsid IgM Antibody", "synonyms": ["Epstein-Barr Capsid IgM Antibody"]}, {"conceptId": "C166035", "definition": "A measurement of the Epstein-Barr virus DNA in a biological specimen.", "preferredTerm": "Epstein-Barr DNA Measurement", "submissionValue": "Epstein-Barr DNA", "synonyms": ["Epstein-Barr DNA"]}, {"conceptId": "C96602", "definition": "A measurement of the Epstein-Barr early antigen in a biological specimen.", "preferredTerm": "Epstein-Barr Early Antigen Measurement", "submissionValue": "Epstein-Barr Early Antigen", "synonyms": ["Epstein-Barr Early Antigen"]}, {"conceptId": "C122116", "definition": "A measurement of the Epstein-Barr early diffuse antigen IgG antibody in a biological specimen.", "preferredTerm": "Epstein-Barr Early D Antigen IgG Antibody Measurement", "submissionValue": "Epstein-Barr Early D Antigen IgG Ab", "synonyms": ["Epstein-Barr Early D Antigen IgG Ab"]}, {"conceptId": "C96603", "definition": "A measurement of the Epstein-Barr nuclear antibody in a biological specimen.", "preferredTerm": "Epstein-Barr Nuclear Antibody Measurement", "submissionValue": "Epstein-Barr Nuclear Antibody", "synonyms": ["Epstein-Barr Nuclear Antibody", "Epstein-Barr Nuclear Antigen Antibody"]}, {"conceptId": "C96604", "definition": "A measurement of the Epstein-Barr nuclear antigen in a biological specimen.", "preferredTerm": "Epstein-Barr Nuclear Antigen Measurement", "submissionValue": "Epstein-Barr Nuclear Antigen", "synonyms": ["Epstein-Barr Nuclear Antigen"]}, {"conceptId": "C106518", "definition": "A measurement of the Epstein-Barr nuclear antigen 1 IgG antibody in a biological specimen.", "preferredTerm": "Epstein-Barr Nuclear Antigen 1 IgG Ab Measurement", "submissionValue": "Epstein-Barr Nuclear Antigen 1 IgG Ab", "synonyms": ["Epstein-Barr Nuclear Antigen 1 IgG Ab"]}, {"conceptId": "C172538", "definition": "A measurement of the Escherichia coli in a biological specimen.", "preferredTerm": "Escherichia coli Measurement", "submissionValue": "Escherichia coli", "synonyms": ["Escherichia coli"]}, {"conceptId": "C166037", "definition": "A measurement of the Escherichia coli O157 DNA in a biological specimen.", "preferredTerm": "Escherichia coli O157 DNA Measurement", "submissionValue": "Escherichia coli O157 DNA", "synonyms": ["Escherichia coli O157 DNA"]}, {"conceptId": "C154818", "definition": "A measurement of the total Escherichia coli shiga-like toxin in a biological specimen.", "preferredTerm": "Escherichia coli Shiga-like Toxin Measurement", "submissionValue": "Escherichia coli Shiga-like Toxin", "synonyms": ["Escherichia coli Shiga-like Toxin"]}, {"conceptId": "C166012", "definition": "A measurement of the enterotoxigenic Escherichia coli LtA, ST1a and/or ST1b DNA in a biological specimen.", "preferredTerm": "Enterotoxigenic Escherichia coli LtA, ST1a, and/or ST1b DNA Measurement", "submissionValue": "ETEC LtA/ST1a/ST1b DNA", "synonyms": ["ETEC LtA/ST1a/ST1b DNA", "Enterotoxigenic Escherichia coli LtA/ST1a/ST1b DNA"]}, {"conceptId": "C135421", "definition": "A measurement of the flagellates (protozoans that possess flagella) in a biological specimen.", "preferredTerm": "Flagellates Measurement", "submissionValue": "Flagellates", "synonyms": ["Flagellates"]}, {"conceptId": "C154813", "definition": "A measurement of the fungi in a biological specimen.", "preferredTerm": "Fungi Measurement", "submissionValue": "Fungi", "synonyms": ["Fungi", "Fungus"]}, {"conceptId": "C147343", "definition": "A measurement of the filamentous fungi in a biological specimen.", "preferredTerm": "Filamentous Fungi Count", "submissionValue": "Fungi, Filamentous", "synonyms": ["Fungi, Filamentous"]}, {"conceptId": "C147344", "definition": "A measurement of the yeast-like fungi in a biological specimen.", "preferredTerm": "Yeast-Like Fungi Count", "submissionValue": "Fungi, Yeast-Like", "synonyms": ["Fungi, Yeast-Like"]}, {"conceptId": "C163527", "definition": "A measurement of the Fusarium proliferatum IgE antibody in a biological specimen.", "preferredTerm": "Fusarium proliferatum IgE Antibody Measurement", "submissionValue": "Fusarium proliferatum IgE Antibody", "synonyms": ["Fusarium proliferatum IgE Antibody", "Gibberella intermedia IgE Antibody"]}, {"conceptId": "C154817", "definition": "A measurement of the galactomannan antigen in a biological specimen.", "preferredTerm": "Galactomannan Antigen Measurement", "submissionValue": "Galactomannan Antigen", "synonyms": ["Galactomannan Antigen"]}, {"conceptId": "C161402", "definition": "A measurement of the Gardnerella vaginalis in a biological specimen.", "preferredTerm": "Gardnerella vaginalis Measurement", "submissionValue": "Gardnerella vaginalis", "synonyms": ["Corynebacterium vaginalis", "Gardnerella vaginalis"]}, {"conceptId": "C154822", "definition": "A measurement of the Giardia lamblia antigen in a biological specimen.", "preferredTerm": "Giardia lamblia Antigen Measurement", "submissionValue": "Giardia lamblia Antigen", "synonyms": ["Giardia lamblia Antigen"]}, {"conceptId": "C166038", "definition": "A measurement of the Giardia lamblia DNA in a biological specimen.", "preferredTerm": "Giardia lamblia DNA Measurement", "submissionValue": "Giardia lamblia DNA", "synonyms": ["Giardia duodenalis DNA", "Giardia intestinalis DNA", "Giardia lamblia DNA"]}, {"conceptId": "C154812", "definition": "A measurement of the gram negative bacteria in a biological specimen.", "preferredTerm": "Gram Negative Bacteria Measurement", "submissionValue": "Gram Negative Bacteria", "synonyms": ["Gram Negative Bacteria"]}, {"conceptId": "C161401", "definition": "A measurement of the gram negative cocci-shaped bacteria in a biological specimen.", "preferredTerm": "Gram Negative Cocci Measurement", "submissionValue": "Gram Negative Cocci", "synonyms": ["Gram Negative Cocci"]}, {"conceptId": "C154811", "definition": "A measurement of the gram positive bacteria in a biological specimen.", "preferredTerm": "Gram Positive Bacteria Measurement", "submissionValue": "Gram Positive Bacteria", "synonyms": ["Gram Positive Bacteria"]}, {"conceptId": "C147458", "definition": "A measurement of the organisms that are not assigned to the species level but are assigned to the Haemophilus genus level in a biological specimen.", "preferredTerm": "Haemophilus Measurement", "submissionValue": "Haemophilus", "synonyms": ["Haemophilus"]}, {"conceptId": "C147457", "definition": "A measurement of the Haemophilus influenza virus in a biological specimen.", "preferredTerm": "Haemophilus influenzae Measurement", "submissionValue": "Haemophilus influenzae", "synonyms": ["H. influenzae", "Haemophilus influenzae"]}, {"conceptId": "C139086", "definition": "A relative measurement (ratio) of the Hepatitis C virus antibody signal in a biological specimen to Hepatitis C virus positive internal control.", "preferredTerm": "HCV Antibody Signal to HCV Antibody Cutoff Ratio Measurement", "submissionValue": "HCV Antibody Signal/HCV Antibody Cutoff", "synonyms": ["HCV Antibody Signal/HCV Antibody Cutoff"]}, {"conceptId": "C154819", "definition": "A measurement of the Helicobacter pylori antigen in a biological specimen.", "preferredTerm": "Helicobacter pylori Antigen Measurement", "submissionValue": "Helicobacter pylori Antigen", "synonyms": ["Helicobacter pylori Antigen"]}, {"conceptId": "C103403", "definition": "A measurement of the Helicobacter pylori IgG antibody in a biological specimen.", "preferredTerm": "Helicobacter pylori IgG Antibody Measurement", "submissionValue": "Helicobacter pylori IgG Antibody", "synonyms": ["Helicobacter pylori IgG Antibody"]}, {"conceptId": "C92534", "definition": "A measurement of the hepatitis A virus antibody in a biological specimen.", "preferredTerm": "Hepatitis A Antibody Measurement", "submissionValue": "Hepatitis A Virus Antibody", "synonyms": ["Hepatitis A Virus Antibody"]}, {"conceptId": "C163538", "definition": "A measurement of hepatitis A virus IgG antibody in a biological specimen.", "preferredTerm": "Hepatitis A Virus IgG Antibody Measurement", "submissionValue": "Hepatitis A Virus IgG Antibody", "synonyms": ["Hepatitis A Virus IgG Antibody"]}, {"conceptId": "C92271", "definition": "A measurement of hepatitis A virus IgM antibody in a biological specimen.", "preferredTerm": "Hepatitis A Virus Antibody IgM Measurement", "submissionValue": "Hepatitis A Virus IgM Antibody", "synonyms": ["Hepatitis A Virus IgM Antibody"]}, {"conceptId": "C125944", "definition": "A measurement of an unspecified hepatitis B antibody in a biological specimen.", "preferredTerm": "Hepatitis B Virus Antibody Measurement", "submissionValue": "Hepatitis B Virus Antibody", "synonyms": ["Hepatitis B Virus Antibody"]}, {"conceptId": "C96660", "definition": "A measurement of the hepatitis B virus core antibody in a biological specimen.", "preferredTerm": "Hepatitis B Virus Core Antibody Measurement", "submissionValue": "Hepatitis B Virus Core Antibody", "synonyms": ["Hepatitis B Virus Core Antibody"]}, {"conceptId": "C166039", "definition": "A measurement of the Hepatitis B virus core antigen in a biological specimen.", "preferredTerm": "Hepatitis B Virus Core Antigen Measurement", "submissionValue": "Hepatitis B Virus Core Antigen", "synonyms": ["Hepatitis B Virus Core Antigen"]}, {"conceptId": "C119280", "definition": "A measurement of the hepatitis B virus core IgG antibody in a biological specimen.", "preferredTerm": "Hepatitis B Virus Core IgG Antibody Measurement", "submissionValue": "Hepatitis B Virus Core IgG Antibody", "synonyms": ["Hepatitis B Virus Core IgG Antibody"]}, {"conceptId": "C96661", "definition": "A measurement of the hepatitis B virus core IgM antibody in a biological specimen.", "preferredTerm": "Hepatitis B Virus Core IgM Antibody Measurement", "submissionValue": "Hepatitis B Virus Core IgM Antibody", "synonyms": ["Hepatitis B Virus Core IgM Antibody"]}, {"conceptId": "C103404", "definition": "A measurement of the Hepatitis B virus DNA in a biological specimen.", "preferredTerm": "Hepatitis B DNA Measurement", "submissionValue": "Hepatitis B Virus DNA", "synonyms": ["Hepatitis B Virus DNA"]}, {"conceptId": "C96662", "definition": "A measurement of the hepatitis B e antibody in a biological specimen.", "preferredTerm": "Hepatitis B Virus e Antibody Measurement", "submissionValue": "Hepatitis B Virus e Antibody", "synonyms": ["Hepatitis B Virus e Antibody"]}, {"conceptId": "C96663", "definition": "A measurement of the hepatitis B e antigen in a biological specimen.", "preferredTerm": "Hepatitis B Virus e Antigen Measurement", "submissionValue": "Hepatitis B Virus e Antigen", "synonyms": ["Hepatitis B Virus e Antigen"]}, {"conceptId": "C166040", "definition": "A measurement of the hepatitis B virus nucleic acid in a biological specimen.", "preferredTerm": "Hepatitis B Virus Nucleic Acid Measurement", "submissionValue": "Hepatitis B Virus Nucleic Acid", "synonyms": ["Hepatitis B Virus Nucleic Acid"]}, {"conceptId": "C74711", "definition": "A measurement of the hepatitis B virus surface antibody in a biological specimen.", "preferredTerm": "Hepatitis B Surface Antibody Measurement", "submissionValue": "Hepatitis B Virus Surface Antibody", "synonyms": ["Anti-HBs", "HBsAb", "Hepatitis B Virus Surface Antibody"]}, {"conceptId": "C64850", "definition": "A measurement of the surface antigen reaction of a biological specimen to the Hepatitis B virus.", "preferredTerm": "Hepatitis B Virus Surface Antigen Measurement", "submissionValue": "Hepatitis B Virus Surface Antigen", "synonyms": ["HBsAg", "Hepatitis B Virus Surface Antigen"]}, {"conceptId": "C92535", "definition": "A measurement of the hepatitis C virus antibody in a biological specimen.", "preferredTerm": "Hepatitis C Antibody Measurement", "submissionValue": "Hepatitis C Virus Antibody", "synonyms": ["Hepatitis C Virus Antibody"]}, {"conceptId": "C116196", "definition": "A measurement of the hepatitis C virus antigen in a biological specimen.", "preferredTerm": "Hepatitis C Virus Antigen Measurement", "submissionValue": "Hepatitis C Virus Antigen", "synonyms": ["Hepatitis C Virus Antigen"]}, {"conceptId": "C135424", "definition": "A measurement of the hepatitis C virus core antigen in a biological specimen.", "preferredTerm": "Hepatitis C Virus Core Antigen Measurement", "submissionValue": "Hepatitis C Virus Core Antigen", "synonyms": ["Hepatitis C Virus Core Antigen"]}, {"conceptId": "C166041", "definition": "A measurement of the hepatitis C virus nucleic acid in a biological specimen.", "preferredTerm": "Hepatitis C Virus Nucleic Acid Measurement", "submissionValue": "Hepatitis C Virus Nucleic Acid", "synonyms": ["Hepatitis C Virus Nucleic Acid"]}, {"conceptId": "C142330", "definition": "A measurement of the Hepatitis C virus RNA in a biological specimen.", "preferredTerm": "Hepatitis C Virus RNA Measurement", "submissionValue": "Hepatitis C Virus RNA", "synonyms": ["Hepatitis C Virus RNA"]}, {"conceptId": "C96664", "definition": "A measurement of the hepatitis D virus antibody in a biological specimen.", "preferredTerm": "Hepatitis D Virus Antibody Measurement", "submissionValue": "Hepatitis D Virus Antibody", "synonyms": ["Hepatitis D Virus Antibody", "Hepatitis Delta Antibody"]}, {"conceptId": "C119281", "definition": "A measurement of the hepatitis D virus IgG antibody in a biological specimen.", "preferredTerm": "Hepatitis D Virus IgG Antibody Measurement", "submissionValue": "Hepatitis D Virus IgG Antibody", "synonyms": ["Hepatitis D Virus IgG Antibody"]}, {"conceptId": "C119282", "definition": "A measurement of the hepatitis D virus IgM antibody in a biological specimen.", "preferredTerm": "Hepatitis D Virus IgM Antibody Measurement", "submissionValue": "Hepatitis D Virus IgM Antibody", "synonyms": ["Hepatitis D Virus IgM Antibody"]}, {"conceptId": "C119283", "definition": "A measurement of the hepatitis E virus antibody in a biological specimen.", "preferredTerm": "Hepatitis E Virus Antibody Measurement", "submissionValue": "Hepatitis E Virus Antibody", "synonyms": ["Hepatitis E Virus Antibody"]}, {"conceptId": "C166042", "definition": "A measurement of the Hepatitis E virus antigen in a biological specimen.", "preferredTerm": "Hepatitis E Virus Antigen Measurement", "submissionValue": "Hepatitis E Virus Antigen", "synonyms": ["Hepatitis E Virus Antigen"]}, {"conceptId": "C106526", "definition": "A measurement of IgG antibody to the hepatitis E virus in a biological specimen.", "preferredTerm": "Hepatitis E Virus IgG Antibody Measurement", "submissionValue": "Hepatitis E Virus IgG Antibody", "synonyms": ["Hepatitis E Virus IgG Antibody"]}, {"conceptId": "C96665", "definition": "A measurement of the hepatitis E virus IgM antibody in a biological specimen.", "preferredTerm": "Hepatitis E Virus IgM Antibody Measurement", "submissionValue": "Hepatitis E Virus IgM Antibody", "synonyms": ["Hepatitis E Virus IgM Antibody"]}, {"conceptId": "C142331", "definition": "A measurement of the Hepatitis E virus RNA in a biological specimen.", "preferredTerm": "Hepatitis E Virus RNA Measurement", "submissionValue": "Hepatitis E Virus RNA", "synonyms": ["Hepatitis E Virus RNA"]}, {"conceptId": "C96666", "definition": "A measurement of the herpes simplex virus 1 IgG antibody in a biological specimen.", "preferredTerm": "Herpes Simplex Virus 1 IgG Antibody Measurement", "submissionValue": "Herpes Simplex Virus 1 IgG Antibody", "synonyms": ["HSV-1 IgG Antibody", "Herpes Simplex Virus 1 IgG Antibody"]}, {"conceptId": "C98738", "definition": "A measurement of the Herpes Simplex virus 1 IgM antibodies in a biological specimen.", "preferredTerm": "Herpes Simplex Virus 1 IgM Antibody Measurement", "submissionValue": "Herpes Simplex Virus 1 IgM Antibody", "synonyms": ["Herpes Simplex Virus 1 IgM Antibody"]}, {"conceptId": "C96697", "definition": "A measurement of the herpes simplex virus 1 and 2 IgG antibody in a biological specimen.", "preferredTerm": "Herpes Simplex Virus 1/2 IgG Antibody Measurement", "submissionValue": "Herpes Simplex Virus 1/2 IgG Antibody", "synonyms": ["HSV-1/2 IgG Ab", "Herpes Simplex Virus 1/2 IgG Antibody"]}, {"conceptId": "C96698", "definition": "A measurement of the herpes simplex virus 1 and 2 IgM antibody in a biological specimen.", "preferredTerm": "Herpes Simplex Virus 1/2 IgM Antibody Measurement", "submissionValue": "Herpes Simplex Virus 1/2 IgM Antibody", "synonyms": ["HSV-1/2 IgM Ab", "Herpes Simplex Virus 1/2 IgM Antibody"]}, {"conceptId": "C96667", "definition": "A measurement of the herpes simplex virus 2 IgG antibody in a biological specimen.", "preferredTerm": "Herpes Simplex Virus 2 IgG Antibody Measurement", "submissionValue": "Herpes Simplex Virus 2 IgG Antibody", "synonyms": ["HSV-2 IgG Antibody", "Herpes Simplex Virus 2 IgG Antibody"]}, {"conceptId": "C98739", "definition": "A measurement of the Herpes Simplex virus 2 IgM antibodies in a biological specimen.", "preferredTerm": "Herpes Simplex Virus 2 IgM Antibody Measurement", "submissionValue": "Herpes Simplex Virus 2 IgM Antibody", "synonyms": ["Herpes Simplex Virus 2 IgM Antibody"]}, {"conceptId": "C112292", "definition": "A measurement of the herpes simplex virus 6 antibody in a biological specimen.", "preferredTerm": "Herpes Simplex Virus 6 Antibody Measurement", "submissionValue": "Herpes Simplex Virus 6 Antibody", "synonyms": ["Herpes Simplex Virus 6 Antibody"]}, {"conceptId": "C81984", "definition": "A measurement of the heterophile antibodies in a biological specimen.", "preferredTerm": "Heterophile Antibody Measurement", "submissionValue": "Heterophile Antibodies", "synonyms": ["Heterophile Antibodies"]}, {"conceptId": "C154816", "definition": "A measurement of the Histoplasma capsulatum antigen in a biological specimen.", "preferredTerm": "Histoplasma capsulatum Antigen Measurement", "submissionValue": "Histoplasma capsulatum Antigen", "synonyms": ["Histoplasma capsulatum Antigen"]}, {"conceptId": "C106527", "definition": "A measurement of the HIV virus antibody in a biological specimen.", "preferredTerm": "HIV Antibody Measurement", "submissionValue": "HIV Antibody", "synonyms": ["HIV Antibody"]}, {"conceptId": "C74713", "definition": "A measurement of the HIV-1 virus antibody in a biological specimen.", "preferredTerm": "HIV-1 Antibody Measurement", "submissionValue": "HIV-1 Antibody", "synonyms": ["HIV-1 Antibody"]}, {"conceptId": "C166043", "definition": "A measurement of the antibody reaction to the HIV-1 virus and the measurement of HIV-1 p24 antigen in a biological specimen.", "preferredTerm": "HIV-1 Antibody and HIV-1 p24 Antigen Measurement", "submissionValue": "HIV-1 Antibody + HIV-1 p24 Antigen", "synonyms": ["HIV-1 Antibody + HIV-1 p24 Antigen"]}, {"conceptId": "C154821", "definition": "A measurement of the HIV-1 antigen in a biological specimen.", "preferredTerm": "HIV-1 Antigen Measurement", "submissionValue": "HIV-1 Antigen", "synonyms": ["HIV-1 Antigen"]}, {"conceptId": "C163524", "definition": "A measurement of the HIV-1 gp160 antibody in a biological specimen.", "preferredTerm": "HIV-1 gp160 Antibody Measurement", "submissionValue": "HIV-1 gp160 Antibody", "synonyms": ["HIV-1 Glycoprotein 160 Antibody", "HIV-1 gp160 Antibody"]}, {"conceptId": "C163526", "definition": "A measurement of the HIV-1 gp41 antibody in a biological specimen.", "preferredTerm": "HIV-1 gp41 Antibody Measurement", "submissionValue": "HIV-1 gp41 Antibody", "synonyms": ["HIV-1 Glycoprotein 41 Antibody", "HIV-1 gp41 Antibody"]}, {"conceptId": "C92263", "definition": "A measurement of the HIV-1 group M and O nucleic acids in a biological specimen.", "preferredTerm": "HIV-1 Group M and O Nucleic Acid Measurement", "submissionValue": "HIV-1 Group M and O Nucleic Acid", "synonyms": ["HIV-1 Group M and O Nucleic Acid"]}, {"conceptId": "C92264", "definition": "A measurement of the HIV-1 group O antibody in a biological specimen.", "preferredTerm": "HIV-1 Group O Antibody Measurement", "submissionValue": "HIV-1 Group O Antibody", "synonyms": ["HIV-1 Group O Antibody"]}, {"conceptId": "C163525", "definition": "A measurement of the HIV-1 p24 antibody in a biological specimen.", "preferredTerm": "HIV-1 p24 Antibody Measurement", "submissionValue": "HIV-1 p24 Antibody", "synonyms": ["HIV-1 Protein 24 Antibody", "HIV-1 p24 Antibody"]}, {"conceptId": "C92265", "definition": "A measurement of the HIV-1 p24 antigen in a biological specimen.", "preferredTerm": "HIV-1 p24 Antigen Measurement", "submissionValue": "HIV-1 p24 Antigen", "synonyms": ["HIV-1 p24 Antigen"]}, {"conceptId": "C163523", "definition": "A measurement of the amount of HIV-1 p31 antibody in a biological specimen.", "preferredTerm": "HIV-1 p31 Antibody Measurement", "submissionValue": "HIV-1 p31 Antibody", "synonyms": ["HIV-1 Protein 31 Antibody", "HIV-1 p31 Antibody"]}, {"conceptId": "C158238", "definition": "A measurement of the HIV-1 RNA in a biological specimen.", "preferredTerm": "HIV-1 RNA Measurement", "submissionValue": "HIV-1 RNA", "synonyms": ["HIV-1 RNA"]}, {"conceptId": "C74714", "definition": "A measurement of either the HIV-1 or HIV-2 virus antibody in a biological specimen.", "preferredTerm": "HIV-1 HIV-2 Antibody Measurement", "submissionValue": "HIV-1/2 Antibody", "synonyms": ["HIV-1/2 Antibody"]}, {"conceptId": "C139085", "definition": "A measurement of the antibody reaction of a biological specimen to either the HIV-1 or HIV-2 virus and the measurement of HIV-1 p24 antigen in a biological specimen.", "preferredTerm": "HIV-1/2 Antibody and HIV-1 p24 Antigen Measurement", "submissionValue": "HIV-1/2 Antibody + HIV-1 p24 Antigen", "synonyms": ["HIV-1/2 Antibody + HIV-1 p24 Antigen"]}, {"conceptId": "C163539", "definition": "A measurement of the HIV-1/HIV-2 antigens and/or HIV-1/HIV-2 antibodies in a biological specimen (to be used when the antigen is not specified).", "preferredTerm": "HIV-1/2 Antigen/Antibody Measurement", "submissionValue": "HIV-1/2 Antigen/Antibody", "synonyms": ["HIV-1/2 Antigen/Antibody"]}, {"conceptId": "C161393", "definition": "A measurement of the HIV-1 and/or HIV-2 RNA in a biological specimen.", "preferredTerm": "HIV-1/2 RNA Measurement", "submissionValue": "HIV-1/2 RNA", "synonyms": ["HIV-1/2 RNA"]}, {"conceptId": "C74715", "definition": "A measurement of the HIV-2 virus antibody in a biological specimen.", "preferredTerm": "HIV-2 Antibody Measurement", "submissionValue": "HIV-2 Antibody", "synonyms": ["HIV-2 Antibody"]}, {"conceptId": "C166044", "definition": "A measurement of the antibody reaction to the HIV-2 virus and the measurement of HIV-1 p24 antigen in a biological specimen.", "preferredTerm": "HIV-2 Antibody And HIV-1 p24 Antigen Measurement", "submissionValue": "HIV-2 Antibody + HIV-1 p24 Antigen", "synonyms": ["HIV-2 Antibody + HIV-1 p24 Antigen"]}, {"conceptId": "C163522", "definition": "A measurement of the amount of HIV-2 gp140 antibody in a biological specimen.", "preferredTerm": "HIV-2 gp140 Antibody Measurement", "submissionValue": "HIV-2 gp140 Antibody", "synonyms": ["HIV-2 Glycoprotein140 Antibody", "HIV-2 gp140 Antibody"]}, {"conceptId": "C163521", "definition": "A measurement of the HIV-2 glycoprotein 36 antibody in a biological specimen.", "preferredTerm": "HIV-2 gp36 Antibody Measurement", "submissionValue": "HIV-2 gp36 Antibody", "synonyms": ["HIV-2 Glycoprotein 36 Antibody", "HIV-2 gp36 Antibody"]}, {"conceptId": "C92266", "definition": "A measurement of the HIV-2 nucleic acids in a biological specimen.", "preferredTerm": "HIV-2 Nucleic Acid Measurement", "submissionValue": "HIV-2 Nucleic Acid", "synonyms": ["HIV-2 Nucleic Acid"]}, {"conceptId": "C166045", "definition": "A measurement of the HIV-2 RNA in a biological specimen.", "preferredTerm": "HIV-2 RNA Measurement", "submissionValue": "HIV-2 RNA", "synonyms": ["HIV-2 RNA"]}, {"conceptId": "C122125", "definition": "A measurement of either the HTLV-1 or HTLV-2 virus antibody in a biological specimen.", "preferredTerm": "HTLV-I HTLV-II Antibody Measurement", "submissionValue": "HTLV-1/2 Antibody", "synonyms": ["HTLV-1/2 Antibody", "HTLV-I/II Antibody", "Human T-cell Lymphotropic Virus 1/2 Antibody"]}, {"conceptId": "C166017", "definition": "A measurement of the Human adenovirus type 40 and/or Human adenovirus type 41 DNA in a biological specimen.", "preferredTerm": "Human adenovirus 40 and/or Human adenovirus 41 DNA Measurement", "submissionValue": "Human adenovirus 40/41 DNA", "synonyms": ["Human adenovirus 40/41 DNA", "Human adenovirus F40/F41 DNA", "Mastadenovirus 40/41 DNA"]}, {"conceptId": "C166016", "definition": "A measurement of the Human astrovirus 1, 2, 3, 4, 5, 6, 7 and/or 8 RNA in a biological specimen.", "preferredTerm": "Human astrovirus 1, 2, 3, 4, 5, 6, 7, and/or 8 RNA Measurement", "submissionValue": "Human astrovirus 1/2/3/4/5/6/7/8 RNA", "synonyms": ["Human astrovirus 1/2/3/4/5/6/7/8 RNA"]}, {"conceptId": "C161395", "definition": "A measurement of the Human Immunodeficiency Virus in a biological specimen.", "preferredTerm": "Human Immunodeficiency Virus Measurement", "submissionValue": "Human Immunodeficiency Virus", "synonyms": ["Human Immunodeficiency Virus"]}, {"conceptId": "C127618", "definition": "A measurement of the human papillomavirus 11 antibody in a biological specimen.", "preferredTerm": "Human Papillomavirus 11 Antibody Measurement", "submissionValue": "Human Papillomavirus 11 Antibody", "synonyms": ["Human Papillomavirus 11 Antibody"]}, {"conceptId": "C127619", "definition": "A measurement of the human papillomavirus 16 antibody in a biological specimen.", "preferredTerm": "Human Papillomavirus 16 Antibody Measurement", "submissionValue": "Human Papillomavirus 16 Antibody", "synonyms": ["Human Papillomavirus 16 Antibody"]}, {"conceptId": "C127620", "definition": "A measurement of the human papillomavirus 18 antibody in a biological specimen.", "preferredTerm": "Human Papillomavirus 18 Antibody Measurement", "submissionValue": "Human Papillomavirus 18 Antibody", "synonyms": ["Human Papillomavirus 18 Antibody"]}, {"conceptId": "C127621", "definition": "A measurement of the human papillomavirus 6 antibody in a biological specimen.", "preferredTerm": "Human Papillomavirus 6 Antibody Measurement", "submissionValue": "Human Papillomavirus 6 Antibody", "synonyms": ["Human Papillomavirus 6 Antibody"]}, {"conceptId": "C154833", "definition": "A measurement of the Human Parainfluenza antigen in a biological specimen.", "preferredTerm": "Human Parainfluenza Antigen Measurement", "submissionValue": "Human Parainfluenza Antigen", "synonyms": ["Human Parainfluenza Antigen"]}, {"conceptId": "C154834", "definition": "A measurement of the Human Parainfluenza Type 1 antigen in a biological specimen.", "preferredTerm": "Human Parainfluenza Type 1 Antigen Measurement", "submissionValue": "Human Parainfluenza Type 1 Antigen", "synonyms": ["Human Parainfluenza Type 1 Antigen"]}, {"conceptId": "C156542", "definition": "A measurement of the Human Parvovirus B19 in a biological specimen.", "preferredTerm": "Human Parvovirus B19 Measurement", "submissionValue": "Human Parvovirus B19", "synonyms": ["Human Parvovirus B19"]}, {"conceptId": "C170609", "definition": "A measurement of RNA from any member of the Human Rhinovirus species and/or Human Enterovirus species in a biological specimen.", "preferredTerm": "Human rhinovirus/enterovirus RNA Measurement", "submissionValue": "Human rhinovirus/enterovirus RNA", "synonyms": ["Human rhinovirus/enterovirus RNA"]}, {"conceptId": "C120677", "definition": "A measurement of the influenza A antigen in a biological specimen.", "preferredTerm": "Influenza A Antigen Measurement", "submissionValue": "Influenza A Antigen", "synonyms": ["Influenza A Antigen"]}, {"conceptId": "C103408", "definition": "A measurement of the Influenza A IgG antibody in a biological specimen.", "preferredTerm": "Influenza A IgG Antibody Measurement", "submissionValue": "Influenza A IgG Antibody", "synonyms": ["Influenza A IgG Antibody"]}, {"conceptId": "C120678", "definition": "A measurement of the influenza A and/or B antigen in a biological specimen.", "preferredTerm": "Influenza A/B Antigen Measurement", "submissionValue": "Influenza A/B Antigen", "synonyms": ["Influenza A/B Antigen"]}, {"conceptId": "C120679", "definition": "A measurement of the influenza B antigen in a biological specimen.", "preferredTerm": "Influenza B Antigen Measurement", "submissionValue": "Influenza B Antigen", "synonyms": ["Influenza B Antigen"]}, {"conceptId": "C103409", "definition": "A measurement of the Influenza B IgG antibody in a biological specimen.", "preferredTerm": "Influenza B IgG Antibody Measurement", "submissionValue": "Influenza B IgG Antibody", "synonyms": ["Influenza B IgG Antibody"]}, {"conceptId": "C147378", "definition": "A measurement of the Japanese encephalitis virus antibody in a biological specimen.", "preferredTerm": "Japanese Encephalitis Virus Antibody Measurement", "submissionValue": "Japanese Encephalitis Virus Antibody", "synonyms": ["Japanese Encephalitis Virus Antibody"]}, {"conceptId": "C112326", "definition": "A measurement of the JC virus antibody in a biological specimen.", "preferredTerm": "JC Virus Antibody Measurement", "submissionValue": "JC Virus Antibody", "synonyms": ["JC Polyomavirus Antibody", "JC Virus Antibody", "JCV Antibody", "John Cunningham Virus Antibody"]}, {"conceptId": "C163540", "definition": "A measurement of the JC virus DNA in a biological specimen.", "preferredTerm": "JC Virus DNA Measurement", "submissionValue": "JC Virus DNA", "synonyms": ["JC Polyomavirus DNA", "JC Virus DNA", "JCV DNA", "John Cunningham Virus DNA"]}, {"conceptId": "C172539", "definition": "A measurement of the organisms that are not assigned to the species level but are assigned to the Klebsiella genus level in a biological specimen.", "preferredTerm": "Klebsiella Measurement", "submissionValue": "Klebsiella", "synonyms": ["Klebsiella"]}, {"conceptId": "C166046", "definition": "A measurement of the Lactobacillus crispatus DNA in a biological specimen.", "preferredTerm": "Lactobacillus crispatus DNA Measurement", "submissionValue": "Lactobacillus crispatus DNA", "synonyms": ["Lactobacillus crispatus DNA"]}, {"conceptId": "C92275", "definition": "A measurement of the Legionella pneumophila antigen in a biological specimen.", "preferredTerm": "Legionella pneumophila Antigen Measurement", "submissionValue": "Legionella pneumophila Antigen", "synonyms": ["Legionella pneumophila Antigen"]}, {"conceptId": "C92276", "definition": "A measurement of the Legionella pneumophila IgG antibody in a biological specimen.", "preferredTerm": "Legionella pneumophila IgG Antibody Measurement", "submissionValue": "Legionella pneumophila IgG Antibody", "synonyms": ["Legionella pneumophila IgG Antibody"]}, {"conceptId": "C92277", "definition": "A measurement of the Legionella pneumophila IgG and IgM in a biological specimen.", "preferredTerm": "Legionella pneumophila IgG IgM Antibody Measurement", "submissionValue": "Legionella pneumophila IgG IgM Antibody", "synonyms": ["Legionella pneumophila IgG IgM Antibody"]}, {"conceptId": "C92278", "definition": "A measurement of the Legionella pneumophila IgM antibody in a biological specimen.", "preferredTerm": "Legionella pneumophila IgM Antibody Measurement", "submissionValue": "Legionella pneumophila IgM Antibody", "synonyms": ["Legionella pneumophila IgM Antibody"]}, {"conceptId": "C154826", "definition": "A measurement of the Legionella pneumophila serogroup 1 antigen in a biological specimen.", "preferredTerm": "Legionella pneumophila Serogroup 1 Antigen Measurement", "submissionValue": "Legionella pneumophila Sg 1 Antigen", "synonyms": ["Legionella pneumophila Serogroup 1 Antigen", "Legionella pneumophila Sg 1 Antigen"]}, {"conceptId": "C92241", "definition": "A measurement of the amount of interferon gamma that is released when Mycobacterium tuberculosis antigen is incubated with a biological specimen, usually blood. Increased amounts of interferon gamma suggests a prior or existing M. tuberculosis infection.", "preferredTerm": "Mycobacterium tuberculosis Interferon Gamma Response", "submissionValue": "M. tuberculosis IFN Gamma Response", "synonyms": ["M. tuberculosis IFN Gamma Response", "Mycobacterium tuberculosis IFN Gamma Response"]}, {"conceptId": "C163528", "definition": "A measurement of the IgE antibody to any member of the genus Malassezia in a biological specimen.", "preferredTerm": "Malassezia Species IgE Antibody Measurement", "submissionValue": "Malassezia IgE Antibody", "synonyms": ["Malassezia IgE Antibody"]}, {"conceptId": "C171515", "definition": "A measurement of the MERS-CoV RNA in a biological specimen.", "preferredTerm": "MERS-CoV RNA Measurement", "submissionValue": "MERS-CoV RNA", "synonyms": ["MERS-CoV RNA"]}, {"conceptId": "C132416", "definition": "The identification of the type of a microbial organism in a biological specimen.", "preferredTerm": "Microoganism Identification", "submissionValue": "Microbial Organism Identification", "synonyms": ["Microbial Organism Identification"]}, {"conceptId": "C117843", "definition": "Presence of microfilaria stage of filarial nematodes in smears prepared from whole blood or other body fluids.", "preferredTerm": "Microfilaria Measurement", "submissionValue": "Microfilaria", "synonyms": ["Microfilaria"]}, {"conceptId": "C130097", "definition": "A measurement of the Mucor racemosus IgA antibody in a biological specimen.", "preferredTerm": "Mucor racemosus IgA Measurement", "submissionValue": "Mucor racemosus IgA Antibody", "synonyms": ["Mucor racemosus IgA Antibody"]}, {"conceptId": "C166022", "definition": "A classification of the amount of Mucor racemosus antigen IgE antibody, using the RAST (radioallergosorbent test) scoring system, in a biological specimen.", "preferredTerm": "Mucor racemosus IgE Antibody RAST Score Measurement", "submissionValue": "Mucor racemosus IgE AB RAST Score", "synonyms": ["Mucor racemosus IgE RAST Score"]}, {"conceptId": "C130096", "definition": "A measurement of the Mucor racemosus IgE antibody in a biological specimen.", "preferredTerm": "Mucor racemosus IgE Measurement", "submissionValue": "Mucor racemosus IgE Antibody", "synonyms": ["Mucor racemosus IgE Antibody"]}, {"conceptId": "C166018", "definition": "A classification of the amount of Mucor racemosus IgG antibody, using the RAST (radioallergosorbent test) scoring system, in a biological specimen.", "preferredTerm": "Mucor racemosus IgG Antibody RAST Score Measurement", "submissionValue": "Mucor racemosus IgG AB RAST Score", "synonyms": ["Mucor racemosus IgG AB RAST Score"]}, {"conceptId": "C130098", "definition": "A measurement of the Mucor racemosus IgG antibody in a biological specimen.", "preferredTerm": "Mucor racemosus IgG Measurement", "submissionValue": "Mucor racemosus IgG Antibody", "synonyms": ["Mucor racemosus IgG Antibody"]}, {"conceptId": "C130099", "definition": "A measurement of the Mucor racemosus IgG4 antibody in a biological specimen", "preferredTerm": "Mucor racemosus IgG4 Measurement", "submissionValue": "Mucor racemosus IgG4 Antibody", "synonyms": ["Mucor racemosus IgG4 Antibody"]}, {"conceptId": "C122136", "definition": "A measurement of the mumps virus IgG antibody in a biological specimen.", "preferredTerm": "Mumps Virus IgG Antibody Measurement", "submissionValue": "Mumps Virus IgG Antibody", "synonyms": ["Mumps Virus IgG Antibody"]}, {"conceptId": "C163541", "definition": "A measurement of the Mumps rubulavirus IgM Antibody in a biological specimen.", "preferredTerm": "Mumps Virus IgM Antibody Measurement", "submissionValue": "Mumps Virus IgM Antibody", "synonyms": ["Mumps Rubulavirus IgM Antibody", "Mumps Virus IgM Antibody"]}, {"conceptId": "C172543", "definition": "A measurement of the Mycobacterium abscessus in a biological specimen.", "preferredTerm": "Mycobacterium abscessus Measurement", "submissionValue": "Mycobacterium abscessus", "synonyms": ["Mycobacterium abscessus"]}, {"conceptId": "C172540", "definition": "A measurement of the group of bacterial species that can be assigned to the Mycobacterium avium complex in a biological specimen.", "preferredTerm": "Mycobacterium avium Complex Measurement", "submissionValue": "Mycobacterium avium Complex", "synonyms": ["Mycobacterium avium Complex"]}, {"conceptId": "C172544", "definition": "A measurement of the Mycobacterium chelonae in a biological specimen.", "preferredTerm": "Mycobacterium chelonae Measurement", "submissionValue": "Mycobacterium chelonae", "synonyms": ["Mycobacterium chelonae"]}, {"conceptId": "C172545", "definition": "A measurement of the Mycobacterium fortuitum in a biological specimen.", "preferredTerm": "Mycobacterium fortuitum Measurement", "submissionValue": "Mycobacterium fortuitum", "synonyms": ["Mycobacterium fortuitum"]}, {"conceptId": "C172541", "definition": "A measurement of the Mycobacterium kansasii in a biological specimen.", "preferredTerm": "Mycobacterium kansasii Measurement", "submissionValue": "Mycobacterium kansasii", "synonyms": ["Mycobacterium kansasii"]}, {"conceptId": "C172542", "definition": "A measurement of the Mycobacterium simiae in a biological specimen.", "preferredTerm": "Mycobacterium simiae Measurement", "submissionValue": "Mycobacterium simiae", "synonyms": ["Mycobacterium simiae"]}, {"conceptId": "C128982", "definition": "A measurement of the organisms that are assigned to the Mycobacterium tuberculosis species in a biological specimen.", "preferredTerm": "Mycobacterium Tuberculosis Measurement", "submissionValue": "Mycobacterium tuberculosis", "synonyms": ["Mycobacterium tuberculosis"]}, {"conceptId": "C128983", "definition": "A measurement of the organisms assignable to the Mycobacterium tuberculosis complex in a biological specimen.", "preferredTerm": "Mycobacterium tuberculosis Complex Measurement", "submissionValue": "Mycobacterium tuberculosis Complex", "synonyms": ["Mycobacterium tuberculosis Complex"]}, {"conceptId": "C124346", "definition": "A measurement of the Mycobacterium tuberculosis IgA antibodies in a biological specimen.", "preferredTerm": "Mycobacterium tuberculosis IgA Antibody Measurement", "submissionValue": "Mycobacterium tuberculosis IgA Antibody", "synonyms": ["Mycobacterium tuberculosis IgA Antibody"]}, {"conceptId": "C124347", "definition": "A measurement of the Mycobacterium tuberculosis IgE antibodies in a biological specimen.", "preferredTerm": "Mycobacterium tuberculosis IgE Antibody Measurement", "submissionValue": "Mycobacterium tuberculosis IgE Antibody", "synonyms": ["Mycobacterium tuberculosis IgE Antibody"]}, {"conceptId": "C124348", "definition": "A measurement of the Mycobacterium tuberculosis IgG antibodies in a biological specimen.", "preferredTerm": "Mycobacterium tuberculosis IgG Antibody Measurement", "submissionValue": "Mycobacterium tuberculosis IgG Antibody", "synonyms": ["Mycobacterium tuberculosis IgG Antibody"]}, {"conceptId": "C92279", "definition": "A measurement of the Mycobacterium tuberculosis nucleic acid in a biological specimen.", "preferredTerm": "Mycobacterium tuberculosis Nucleic Acid Measurement", "submissionValue": "Mycobacterium tuberculosis Nucleic Acid", "synonyms": ["Mycobacterium tuberculosis Nucleic Acid"]}, {"conceptId": "C166047", "definition": "A measurement of the Mycoplasma genitalium in a biological specimen.", "preferredTerm": "Mycoplasma genitalium Measurement", "submissionValue": "Mycoplasma genitalium", "synonyms": ["Mycoplasma genitalium"]}, {"conceptId": "C156543", "definition": "A measurement of the Mycoplasma pneumoniae in a biological specimen.", "preferredTerm": "Mycoplasma pneumoniae Measurement", "submissionValue": "Mycoplasma pneumoniae", "synonyms": ["Mycoplasma pneumoniae"]}, {"conceptId": "C163542", "definition": "A measurement of the Mycoplasma pneumoniae IgA antibody in a biological specimen.", "preferredTerm": "Mycoplasma pneumoniae IgA Antibody Measurement", "submissionValue": "Mycoplasma pneumoniae IgA Antibody", "synonyms": ["Mycoplasma pneumoniae IgA Antibody"]}, {"conceptId": "C163543", "definition": "A measurement of the Mycoplasma pneumoniae IgM antibody in a biological specimen.", "preferredTerm": "Mycoplasma pneumoniae IgM Antibody Measurement", "submissionValue": "Mycoplasma pneumoniae IgM Antibody", "synonyms": ["Mycoplasma pneumoniae IgM Antibody"]}, {"conceptId": "C166048", "definition": "A measurement of the Mycoplasma pneumophila IgG antibody in a biological specimen.", "preferredTerm": "Mycoplasma pneumophila IgG Antibody Measurement", "submissionValue": "Mycoplasma pneumophila IgG Antibody", "synonyms": ["Mycoplasma pneumophila IgG Antibody"]}, {"conceptId": "C166049", "definition": "A measurement of the Mycoplasma pneumophila IgM antibody in a biological specimen.", "preferredTerm": "Mycoplasma pneumophila IgM Antibody Measurement", "submissionValue": "Mycoplasma pneumophila IgM Antibody", "synonyms": ["Mycoplasma pneumophila IgM Antibody"]}, {"conceptId": "C161399", "definition": "A measurement of the beta-lactamase negative strain of Neisseria gonorrhoeae in a biological specimen.", "preferredTerm": "Neisseria gonorrhoeae, Beta-lactamase Negative Measurement", "submissionValue": "N. gonorrhoeae, Beta-lactamase Negative", "synonyms": ["N. gonorrhoeae, Beta-lactamase Negative"]}, {"conceptId": "C161398", "definition": "A measurement of the beta-lactamase positive strain of Neisseria gonorrhoeae in a biological specimen.", "preferredTerm": "Neisseria gonorrhoeae, Beta-lactamase Positive Measurement", "submissionValue": "N. gonorrhoeae, Beta-lactamase Positive", "synonyms": ["N. gonorrhoeae, Beta-lactamase Positive"]}, {"conceptId": "C92298", "definition": "A measurement of the Neisseria gonorrhoeae in a biological specimen.", "preferredTerm": "Neisseria gonorrhoeae Measurement", "submissionValue": "Neisseria gonorrhoeae", "synonyms": ["Neisseria gonorrhoeae"]}, {"conceptId": "C147459", "definition": "A measurement of the organisms that are assigned to the Mycobacterium genus but are not tuberculosis or leprosy-causing in a biological specimen.", "preferredTerm": "Nontuberculous Mycobacteria Measurement", "submissionValue": "Nontuberculous Mycobacteria", "synonyms": ["NTM", "Non-tuberculous mycobacteria", "Nontuberculous Mycobacteria"]}, {"conceptId": "C166052", "definition": "A measurement of Norovirus genogroup I RNA in a biological specimen.", "preferredTerm": "Norovirus Genogroup I RNA Measurement", "submissionValue": "Norovirus Genogroup I RNA", "synonyms": ["Human Calicivirus Genogroup 1 RNA", "Norovirus GI RNA", "Norovirus Genogroup 1 RNA"]}, {"conceptId": "C166011", "definition": "A measurement of Norovirus genogroup I and/or II RNA in a biological specimen.", "preferredTerm": "Norovirus Genogroup I and/or II RNA Measurement", "submissionValue": "Norovirus Genogroup I/II RNA", "synonyms": ["Norovirus GI/GII RNA", "Norovirus genogroup I and/or genogroup II RNA"]}, {"conceptId": "C166051", "definition": "A measurement of Norovirus genogroup II RNA in a biological specimen.", "preferredTerm": "Norovirus Genogroup II RNA Measurement", "submissionValue": "Norovirus Genogroup II RNA", "synonyms": ["Human Calicivirus Genogroup 2 RNA", "Norovirus GII RNA", "Norovirus Genogroup II RNA"]}, {"conceptId": "C166006", "definition": "A measurement of Norovirus genogroup II.4 IgA antibody in a biological specimen.", "preferredTerm": "Norovirus Genogroup II.4 IgA Antibody Measurement", "submissionValue": "Norovirus Genogroup II.4 IgA Antibody", "synonyms": ["Norovirus GII.4 IgA antibody", "Norovirus Genogroup GII.4 IgA antibody"]}, {"conceptId": "C166005", "definition": "A measurement of Norovirus genogroup II.4 IgG antibody in a biological specimen.", "preferredTerm": "Norovirus Genogroup II.4 IgG Antibody Measurement", "submissionValue": "Norovirus Genogroup II.4 IgG Antibody", "synonyms": ["Norovirus GII.4 IgG antibody", "Norovirus Genogroup GII.4 IgG antibody"]}, {"conceptId": "C166007", "definition": "A measurement of Norovirus genogroup II.4 IgM antibody in a biological specimen.", "preferredTerm": "Norovirus Genogroup II.4 IgM Antibody Measurement", "submissionValue": "Norovirus Genogroup II.4 IgM Antibody", "synonyms": ["Norovirus GII.4 IgM antibody", "Norovirus Genogroup GII.4 IgM antibody"]}, {"conceptId": "C166050", "definition": "A measurement of the Norwalk virus RNA in a biological specimen.", "preferredTerm": "Norwalk virus RNA Measurement", "submissionValue": "Norwalk virus RNA", "synonyms": ["Norwalk calicivirus RNA", "Norwalk virus RNA"]}, {"conceptId": "C100452", "definition": "A measurement of the parasites and ova in a biological specimen.", "preferredTerm": "Ova and Parasite Measurement", "submissionValue": "Ova and Parasite", "synonyms": ["Ova and Parasite"]}, {"conceptId": "C139108", "definition": "A measurement of the mucoid strain of Pseudomonas aeruginosa in a biological specimen.", "preferredTerm": "Mucoid Pseudomonas aeruginosa Measurement", "submissionValue": "P. aeruginosa, Mucoid", "synonyms": ["P. aeruginosa, Mucoid", "Pseudomonas aeruginosa, Mucoid"]}, {"conceptId": "C139107", "definition": "A measurement of the non-mucoid strain of Pseudomonas aeruginosa in a biological specimen.", "preferredTerm": "Non-Mucoid Pseudomonas aeruginosa Measurement", "submissionValue": "P. aeruginosa, Non-mucoid", "synonyms": ["P. aeruginosa, Non-Mucoid", "Pseudomonas aeruginosa, Non-Mucoid"]}, {"conceptId": "C139109", "definition": "A measurement of the small-colony variant strain of Pseudomonas aeruginosa in a biological specimen.", "preferredTerm": "Small-Colony Variant Pseudomonas aeruginosa Measurement", "submissionValue": "P. aeruginosa, Small-colony Variant", "synonyms": ["P. aeruginosa, Small-colony Variant", "Pseudomonas aeruginosa, SCV", "Pseudomonas aeruginosa, Small-colony Variant"]}, {"conceptId": "C166024", "definition": "A classification of the amount of P. notatum antigen IgE antibody, using the RAST (radioallergosorbent test) scoring system, in a biological specimen.", "preferredTerm": "Penicillium notatum IgE Antibody RAST Score Measurement", "submissionValue": "P. notatum IgE AB RAST Score", "synonyms": ["P. notatum IgE AB RAST Score"]}, {"conceptId": "C166020", "definition": "A classification of the amount of P. notatum antigen IgG antibody, using the RAST (radioallergosorbent test) scoring system, in a biological specimen.", "preferredTerm": "Penicillium notatum IgG Antibody RAST Score Measurement", "submissionValue": "P. notatum IgG AB RAST Score", "synonyms": ["P. notatum IgG AB RAST Score"]}, {"conceptId": "C96617", "definition": "A measurement of the Parvovirus B19 IgG antibody in a biological specimen.", "preferredTerm": "Parvovirus B19 IgG Antibody Measurement", "submissionValue": "Parvovirus B19 IgG Antibody", "synonyms": ["Parvovirus B19 IgG Antibody"]}, {"conceptId": "C96618", "definition": "A measurement of the Parvovirus B19 IgM antibody in a biological specimen.", "preferredTerm": "Parvovirus B19 IgM Antibody Measurement", "submissionValue": "Parvovirus B19 IgM Antibody", "synonyms": ["Parvovirus B19 IgM Antibody"]}, {"conceptId": "C130147", "definition": "A measurement of the Penicillium notatum IgA antibody in a biological specimen.", "preferredTerm": "Penicillium notatum Antigen IgA Antibody Measurement", "submissionValue": "Penicillium notatum IgA Antibody", "synonyms": ["Penicillium chrysogenum IgA Antibody", "Penicillium notatum IgA Antibody"]}, {"conceptId": "C130146", "definition": "A measurement of the Penicillium notatum IgE antibody in a biological specimen.", "preferredTerm": "Penicillium notatum Antigen IgE Antibody Measurement", "submissionValue": "Penicillium notatum IgE Antibody", "synonyms": ["Penicillium chrysogenum IgE Antibody", "Penicillium notatum IgE Antibody"]}, {"conceptId": "C130148", "definition": "A measurement of the Penicillium notatum IgG antibody in a biological specimen.", "preferredTerm": "Penicillium notatum Antigen IgG Antibody Measurement", "submissionValue": "Penicillium notatum IgG Antibody", "synonyms": ["Penicillium chrysogenum IgG Antibody", "Penicillium notatum IgG Antibody"]}, {"conceptId": "C130149", "definition": "A measurement of the Penicillium notatum IgG4 antibody in a biological specimen.", "preferredTerm": "Penicillium notatum Antigen IgG4 Antibody Measurement", "submissionValue": "Penicillium notatum IgG4 Antibody", "synonyms": ["Penicillium chrysogenum IgG4 Antibody", "Penicillium notatum IgG4 Antibody"]}, {"conceptId": "C166027", "definition": "A classification of the amount of Penicillium chrysogenum IgE antibody, using the RAST (radioallergosorbent test) scoring system, in a biological specimen.", "preferredTerm": "Penicillium chrysogenum IgE Antibody RAST Score Measurement", "submissionValue": "Penicilliumchrysogenum IgE AB RAST Score", "synonyms": ["Penicillium chrysogenum IgE AB RAST Score", "Penicilliumchrysogenum IgE AB RAST Score"]}, {"conceptId": "C100453", "definition": "Examination of a biological specimen to detect the presence of any protozoan belonging to the Plasmodium genus.", "preferredTerm": "Plasmodium Measurement", "submissionValue": "Plasmodium", "synonyms": ["Malaria", "Plasmodium"]}, {"conceptId": "C132417", "definition": "A measurement of the Plasmodium knowlesi in an asexual replication stage in a biological specimen.", "preferredTerm": "Asexual Plasmodium knowlesi Measurement", "submissionValue": "Plasmodium knowlesi, Asexual", "synonyms": ["Plasmodium knowlesi, Asexual"]}, {"conceptId": "C132418", "definition": "A measurement of the Plasmodium knowlesi in a sexual replication stage in a biological specimen.", "preferredTerm": "Sexual Plasmodium knowlesi Measurement", "submissionValue": "Plasmodium knowlesi, Sexual", "synonyms": ["Plasmodium knowlesi, Sexual"]}, {"conceptId": "C166053", "definition": "A measurement of the Plesiomonas shigelloides DNA in a biological specimen.", "preferredTerm": "Plesiomonas shigelloides DNA Measurement", "submissionValue": "Plesiomonas shigelloides DNA", "synonyms": ["Plesiomonas shigelloides DNA"]}, {"conceptId": "C117849", "definition": "A measurement of protozoa in a biological specimen.", "preferredTerm": "Protozoa Measurement", "submissionValue": "Protozoa", "synonyms": ["Protozoa"]}, {"conceptId": "C172384", "definition": "A measurement of the organisms that are not assigned to the species level but are assigned to the Pseudomonas genus level in a biological specimen.", "preferredTerm": "Pseudomonas Measurement", "submissionValue": "Pseudomonas", "synonyms": ["Pseudomonas"]}, {"conceptId": "C172546", "definition": "A measurement of the Pseudomonas aeruginosa in a biological specimen.", "preferredTerm": "Pseudomonas aeruginosa Measurement", "submissionValue": "Pseudomonas aeruginosa", "synonyms": ["Pseudomonas aeruginosa"]}, {"conceptId": "C74716", "definition": "A measurement of the non-specific Treponemal antibodies produced in response to cellular damage caused by Treponema pallidum (syphilis) in a biological specimen.", "preferredTerm": "Rapid Plasma Reagin Measurement", "submissionValue": "Reagin Antibody", "synonyms": ["RPR", "Rapid Plasma Reagin", "Reagin Antibody", "VDRL", "Venereal Disease Research Laboratory Test"]}, {"conceptId": "C171526", "definition": "A measurement of the respiratory syncytial virus in a biological specimen.", "preferredTerm": "Respiratory Syncytial Virus Measurement", "submissionValue": "Respiratory Syncytial Virus", "synonyms": ["Respiratory Syncytial Virus"]}, {"conceptId": "C154823", "definition": "A measurement of the respiratory syncytial virus antigen in a biological specimen.", "preferredTerm": "Respiratory Syncytial Virus Antigen Measurement", "submissionValue": "Respiratory Syncytial Virus Antigen", "synonyms": ["RSV Antigen", "Respiratory Syncytial Virus Antigen"]}, {"conceptId": "C172549", "definition": "A measurement of the organisms that are not assigned to the species level but are assigned to the Rotavirus genus level in a biological specimen.", "preferredTerm": "Rotavirus Measurement", "submissionValue": "Rotavirus", "synonyms": ["Rotavirus"]}, {"conceptId": "C166054", "definition": "A measurement of the Rotavirus A RNA in a biological specimen.", "preferredTerm": "Rotavirus A RNA Measurement", "submissionValue": "Rotavirus A RNA", "synonyms": ["Rotavirus A RNA", "Rotavirus Group A RNA"]}, {"conceptId": "C154827", "definition": "A measurement of the antigen from any member of the genus Rotavirus in a biological specimen.", "preferredTerm": "Rotavirus Antigen Measurement", "submissionValue": "Rotavirus Antigen", "synonyms": ["Rotavirus Antigen"]}, {"conceptId": "C103440", "definition": "A measurement of the Rubella IgG antibody in a biological specimen.", "preferredTerm": "Rubella IgG Antibody Measurement", "submissionValue": "Rubella IgG Antibody", "synonyms": ["Rubella IgG Antibody"]}, {"conceptId": "C163544", "definition": "A measurement of the Rubella IgM antibody in a biological specimen.", "preferredTerm": "Rubella IgM Antibody Measurement", "submissionValue": "Rubella IgM Antibody", "synonyms": ["Rubella IgM Antibody"]}, {"conceptId": "C154815", "definition": "A measurement of the Rubeola virus antigen in a biological specimen.", "preferredTerm": "Rubeola Antigen Measurement", "submissionValue": "Rubeola Antigen", "synonyms": ["Measles Virus Antigen"]}, {"conceptId": "C112412", "definition": "A measurement of the Measles (Rubeola) virus IgG antibody in a biological specimen.", "preferredTerm": "Rubeola IgG Antibody Measurement", "submissionValue": "Rubeola IgG Antibody", "synonyms": ["Measles IgG Antibody", "Rubeola IgG Antibody"]}, {"conceptId": "C112413", "definition": "A measurement of the Measles (Rubeola) virus IgM antibody in a biological specimen.", "preferredTerm": "Rubeola IgM Antibody Measurement", "submissionValue": "Rubeola IgM Antibody", "synonyms": ["Measles IgM Antibody", "Rubeola IgM Antibody"]}, {"conceptId": "C139110", "definition": "A measurement of the methicillin-resistant strain of Staphylococcus aureus in a biological specimen.", "preferredTerm": "Methicillin-resistant Staphylococcus aureus Measurement", "submissionValue": "S. aureus, Methicillin-resistant", "synonyms": ["S. aureus, Methicillin-Resistant", "Staphylococcus aureus, Methicillin-Resistant"]}, {"conceptId": "C139111", "definition": "A measurement of the methicillin-susceptible strain of Staphylococcus aureus in a biological specimen.", "preferredTerm": "Methicillin-susceptible Staphylococcus aureus Measurement", "submissionValue": "S. aureus, Methicillin-susceptible", "synonyms": ["S. aureus, Methicillin-Susceptible", "Staphylococcus aureus, Methicillin-Susceptible"]}, {"conceptId": "C142249", "definition": "A measurement of the Streptococcus pneumoniae serotype 1 IgG antibody in a biological specimen.", "preferredTerm": "Streptococcus pneumoniae Serotype 1 IgG Antibody Measurement", "submissionValue": "S. pneumoniae Sero 1 IgG AB", "synonyms": ["S. pneumonia Sero 1 IgG AB", "Streptococcus pneumoniae Serotype 1 IgG Antibody"]}, {"conceptId": "C142259", "definition": "A measurement of the Streptococcus pneumoniae serotype 10A IgG antibody in a biological specimen.", "preferredTerm": "Streptococcus pneumoniae Serotype 10A IgG Antibody Measurement", "submissionValue": "S. pneumoniae Sero 10A IgG AB", "synonyms": ["S. pneumonia Sero 10A IgG AB", "Streptococcus pneumoniae Serotype 10A IgG Antibody"]}, {"conceptId": "C142260", "definition": "A measurement of the Streptococcus pneumoniae serotype 11A IgG antibody in a biological specimen.", "preferredTerm": "Streptococcus pneumoniae Serotype 11A IgG Antibody Measurement", "submissionValue": "S. pneumoniae Sero 11A IgG AB", "synonyms": ["S. pneumonia Sero 11A IgG AB", "Streptococcus pneumoniae Serotype 11A IgG Antibody"]}, {"conceptId": "C142261", "definition": "A measurement of the Streptococcus pneumoniae serotype 12F IgG antibody in a biological specimen.", "preferredTerm": "Streptococcus pneumoniae Serotype 12F IgG Antibody Measurement", "submissionValue": "S. pneumoniae Sero 12F IgG AB", "synonyms": ["S. pneumonia Sero 12F IgG AB", "Streptococcus pneumoniae Serotype 12F IgG Antibody"]}, {"conceptId": "C142262", "definition": "A measurement of the Streptococcus pneumoniae serotype 14 IgG antibody in a biological specimen.", "preferredTerm": "Streptococcus pneumoniae Serotype 14 IgG Antibody Measurement", "submissionValue": "S. pneumoniae Sero 14 IgG AB", "synonyms": ["S. pneumonia Sero 14 IgG AB", "Streptococcus pneumoniae Serotype 14 IgG Antibody"]}, {"conceptId": "C142263", "definition": "A measurement of the Streptococcus pneumoniae serotype 15B IgG antibody in a biological specimen.", "preferredTerm": "Streptococcus pneumoniae Serotype 15B IgG Antibody Measurement", "submissionValue": "S. pneumoniae Sero 15B IgG AB", "synonyms": ["S. pneumonia Sero 15B IgG AB", "Streptococcus pneumoniae Serotype 15B IgG Antibody"]}, {"conceptId": "C142264", "definition": "A measurement of the Streptococcus pneumoniae serotype 17F IgG antibody in a biological specimen.", "preferredTerm": "Streptococcus pneumoniae Serotype 17F IgG Antibody Measurement", "submissionValue": "S. pneumoniae Sero 17F IgG AB", "synonyms": ["S. pneumonia Sero 17F IgG AB", "Streptococcus pneumoniae Serotype 17F IgG Antibody"]}, {"conceptId": "C142265", "definition": "A measurement of the Streptococcus pneumoniae serotype 18C IgG antibody in a biological specimen.", "preferredTerm": "Streptococcus pneumoniae Serotype 18C IgG Antibody Measurement", "submissionValue": "S. pneumoniae Sero 18C IgG AB", "synonyms": ["S. pneumonia Sero 18C IgG AB", "Streptococcus pneumoniae Serotype 18C IgG Antibody"]}, {"conceptId": "C142267", "definition": "A measurement of the Streptococcus pneumoniae serotype 19A IgG antibody in a biological specimen.", "preferredTerm": "Streptococcus pneumoniae Serotype 19A IgG Antibody Measurement", "submissionValue": "S. pneumoniae Sero 19A IgG AB", "synonyms": ["S. pneumonia Sero 19A IgG AB", "Streptococcus pneumoniae Serotype 19A IgG Antibody"]}, {"conceptId": "C142266", "definition": "A measurement of the Streptococcus pneumoniae serotype 19F IgG antibody in a biological specimen.", "preferredTerm": "Streptococcus pneumoniae Serotype 19F IgG Antibody Measurement", "submissionValue": "S. pneumoniae Sero 19F IgG AB", "synonyms": ["S. pneumonia Sero 19F IgG AB", "Streptococcus pneumoniae Serotype 19F IgG Antibody"]}, {"conceptId": "C142250", "definition": "A measurement of the Streptococcus pneumoniae serotype 2 IgG antibody in a biological specimen.", "preferredTerm": "Streptococcus pneumoniae Serotype 2 IgG Antibody Measurement", "submissionValue": "S. pneumoniae Sero 2 IgG AB", "synonyms": ["S. pneumonia Sero 2 IgG AB", "Streptococcus pneumoniae Serotype 2 IgG Antibody"]}, {"conceptId": "C142268", "definition": "A measurement of the Streptococcus pneumoniae serotype 20 IgG antibody in a biological specimen.", "preferredTerm": "Streptococcus pneumoniae Serotype 20 IgG Antibody Measurement", "submissionValue": "S. pneumoniae Sero 20 IgG AB", "synonyms": ["S. pneumonia Sero 20 IgG AB", "Streptococcus pneumoniae Serotype 20 IgG Antibody"]}, {"conceptId": "C142269", "definition": "A measurement of the Streptococcus pneumoniae serotype 22F IgG antibody in a biological specimen.", "preferredTerm": "Streptococcus pneumoniae Serotype 22F IgG Antibody Measurement", "submissionValue": "S. pneumoniae Sero 22F IgG AB", "synonyms": ["S. pneumonia Sero 22F IgG AB", "Streptococcus pneumoniae Serotype 22F IgG Antibody"]}, {"conceptId": "C142270", "definition": "A measurement of the Streptococcus pneumoniae serotype 23F IgG antibody in a biological specimen.", "preferredTerm": "Streptococcus pneumoniae Serotype 23F IgG Antibody Measurement", "submissionValue": "S. pneumoniae Sero 23F IgG AB", "synonyms": ["S. pneumonia Sero 23F IgG AB", "Streptococcus pneumoniae Serotype 23F IgG Antibody"]}, {"conceptId": "C142251", "definition": "A measurement of the Streptococcus pneumoniae serotype 3 IgG antibody in a biological specimen.", "preferredTerm": "Streptococcus pneumoniae Serotype 3 IgG Antibody Measurement", "submissionValue": "S. pneumoniae Sero 3 IgG AB", "synonyms": ["S. pneumonia Sero 3 IgG AB", "Streptococcus pneumoniae Serotype 3 IgG Antibody"]}, {"conceptId": "C142271", "definition": "A measurement of the Streptococcus pneumoniae serotype 33F IgG antibody in a biological specimen.", "preferredTerm": "Streptococcus pneumoniae Serotype 33F IgG Antibody Measurement", "submissionValue": "S. pneumoniae Sero 33F IgG AB", "synonyms": ["S. pneumonia Sero 33F IgG AB", "Streptococcus pneumoniae Serotype 33F IgG Antibody"]}, {"conceptId": "C142252", "definition": "A measurement of the Streptococcus pneumoniae serotype 4 IgG antibody in a biological specimen.", "preferredTerm": "Streptococcus pneumoniae Serotype 4 IgG Antibody Measurement", "submissionValue": "S. pneumoniae Sero 4 IgG AB", "synonyms": ["S. pneumonia Sero 4 IgG AB", "Streptococcus pneumoniae Serotype 4 IgG Antibody"]}, {"conceptId": "C142253", "definition": "A measurement of the Streptococcus pneumoniae serotype 5 IgG antibody in a biological specimen.", "preferredTerm": "Streptococcus pneumoniae Serotype 5 IgG Antibody Measurement", "submissionValue": "S. pneumoniae Sero 5 IgG AB", "synonyms": ["S. pneumonia Sero 5 IgG AB", "Streptococcus pneumoniae Serotype 5 IgG Antibody"]}, {"conceptId": "C142254", "definition": "A measurement of the Streptococcus pneumoniae serotype 6B IgG antibody in a biological specimen.", "preferredTerm": "Streptococcus pneumoniae Serotype 6B IgG Antibody Measurement", "submissionValue": "S. pneumoniae Sero 6B IgG AB", "synonyms": ["S. pneumonia Sero 6B IgG AB", "Streptococcus pneumoniae Serotype 6B IgG Antibody"]}, {"conceptId": "C142255", "definition": "A measurement of the Streptococcus pneumoniae serotype 7F IgG antibody in a biological specimen.", "preferredTerm": "Streptococcus pneumoniae Serotype 7F IgG Antibody Measurement", "submissionValue": "S. pneumoniae Sero 7F IgG AB", "synonyms": ["S. pneumonia Sero 7F IgG AB", "Streptococcus pneumoniae Serotype 7F IgG Antibody"]}, {"conceptId": "C142256", "definition": "A measurement of the Streptococcus pneumoniae serotype 8 IgG antibody in a biological specimen.", "preferredTerm": "Streptococcus pneumoniae Serotype 8 IgG Antibody Measurement", "submissionValue": "S. pneumoniae Sero 8 IgG AB", "synonyms": ["S. pneumonia Sero 8 IgG AB", "Streptococcus pneumoniae Serotype 8 IgG Antibody"]}, {"conceptId": "C142257", "definition": "A measurement of the Streptococcus pneumoniae serotype 9N IgG antibody in a biological specimen.", "preferredTerm": "Streptococcus pneumoniae Serotype 9N IgG Antibody Measurement", "submissionValue": "S. pneumoniae Sero 9N IgG AB", "synonyms": ["S. pneumonia Sero 9N IgG AB", "Streptococcus pneumoniae Serotype 9N IgG Antibody"]}, {"conceptId": "C142258", "definition": "A measurement of the Streptococcus pneumoniae serotype 9V IgG antibody in a biological specimen.", "preferredTerm": "Streptococcus pneumoniae Serotype 9V IgG Antibody Measurement", "submissionValue": "S. pneumoniae Sero 9V IgG AB", "synonyms": ["S. pneumonia Sero 9V IgG AB", "Streptococcus pneumoniae Serotype 9V IgG Antibody"]}, {"conceptId": "C166055", "definition": "A measurement of the Salmonella enterica and/or Salmonella bongori DNA in a biological specimen.", "preferredTerm": "Salmonella enterica and/or Salmonella bongori DNA Measurement", "submissionValue": "Salmonella enterica/bongori DNA", "synonyms": ["Salmonella enterica/bongori DNA"]}, {"conceptId": "C166010", "definition": "A measurement of the Sapovirus genogroups I, II, IV and/or V RNA in a biological specimen.", "preferredTerm": "Sapovirus Genogroups I, II, IV, and/or V RNA Measurement", "submissionValue": "Sapovirus Genogroups I/II/IV/V RNA", "synonyms": ["Sapovirus Genogroups I/II/IV/V RNA"]}, {"conceptId": "C174327", "definition": "A measurement of the antigens from SARS-CoV-1 and/or SARS-CoV-2 in a biological specimen.", "preferredTerm": "SARS-CoV-1/SARS-CoV-2 Antigen Measurement", "submissionValue": "SARS-CoV-1/SARS-CoV-2 Antigen", "synonyms": ["SARS-CoV-1/SARS-CoV-2 Antigen"]}, {"conceptId": "C171527", "definition": "A measurement of the SARS-CoV-2 IgA antibody in a biological specimen.", "preferredTerm": "SARS-CoV-2 IgA Antibody Measurement", "submissionValue": "SARS-CoV-2 IgA Antibody", "synonyms": ["SARS-CoV-2 IgA Antibody"]}, {"conceptId": "C174326", "definition": "A measurement of the SARS-CoV-2 IgA and/or IgM antibody in a biological specimen.", "preferredTerm": "SARS-CoV-2 IgA/IgM Antibody Measurement", "submissionValue": "SARS-CoV-2 IgA/IgM Antibody", "synonyms": ["SARS-CoV-2 IgA/IgM Antibody"]}, {"conceptId": "C171528", "definition": "A measurement of the SARS-CoV-2 IgG antibody in a biological specimen.", "preferredTerm": "SARS-CoV-2 IgG Antibody Measurement", "submissionValue": "SARS-CoV-2 IgG Antibody", "synonyms": ["SARS-CoV-2 IgG Antibody"]}, {"conceptId": "C171529", "definition": "A measurement of the SARS-CoV-2 IgG and/or IgM antibody in a biological specimen.", "preferredTerm": "SARS-CoV-2 IgG and/or IgM Antibody Measurement", "submissionValue": "SARS-CoV-2 IgG/IgM Antibody", "synonyms": ["SARS-CoV-2 IgG/IgM Antibody"]}, {"conceptId": "C171530", "definition": "A measurement of the SARS-CoV-2 IgM antibody in a biological specimen.", "preferredTerm": "SARS-CoV-2 IgM Antibody Measurement", "submissionValue": "SARS-CoV-2 IgM Antibody", "synonyms": ["SARS-CoV-2 IgM Antibody"]}, {"conceptId": "C174325", "definition": "A measurement of the SARS-CoV-2 IgM, IgA and/or IgG antibody in a biological specimen.", "preferredTerm": "SARS-CoV-2 IgM/IgA/IgG Antibody Measurement", "submissionValue": "SARS-CoV-2 IgM/IgA/IgG Antibody", "synonyms": ["SARS-CoV-2 IgM/IgA/IgG Antibody"]}, {"conceptId": "C174329", "definition": "A measurement of the SARS-CoV-2 neutralizing antibody in a biological specimen.", "preferredTerm": "SARS-CoV-2 Neutralizing Antibody Measurement", "submissionValue": "SARS-CoV-2 Neutralizing Antibody", "synonyms": ["SARS-CoV-2 Neutralizing Antibody"]}, {"conceptId": "C171531", "definition": "A measurement of the SARS-CoV-2 RNA in a biological specimen.", "preferredTerm": "SARS-CoV-2 RNA Measurement", "submissionValue": "SARS-CoV-2 RNA", "synonyms": ["SARS-CoV-2 RNA"]}, {"conceptId": "C174323", "definition": "A measurement of the SARS-related Coronavirus RNA including but not limited to SARS-CoV, SARS-CoV-2, and/or other SARS-like Coronavirus in a biological specimen.", "preferredTerm": "SARS-related Coronavirus RNA Measurement", "submissionValue": "SARS-related Coronavirus RNA", "synonyms": ["SARS-related Coronavirus RNA"]}, {"conceptId": "C174324", "definition": "A measurement of the SARS-related and/or MERS Coronavirus RNA which includes but not limited to SARS-CoV, SARS-CoV-2, other SARS-like Coronavirus, and/or MERS-CoV in a biological specimen.", "preferredTerm": "SARS-related Coronavirus RNA/MERS RNA Measurement", "submissionValue": "SARS-related Coronavirus RNA/MERS RNA", "synonyms": ["SARS-related Coronavirus RNA/MERS RNA"]}, {"conceptId": "C166056", "definition": "A measurement of the Schistosoma mansoni antibody in a biological specimen.", "preferredTerm": "Schistosoma mansoni Antibody Measurement", "submissionValue": "Schistosoma mansoni Antibody", "synonyms": ["Schistosoma mansoni Antibody"]}, {"conceptId": "C174328", "definition": "A measurement of the severe acute respiratory syndrome-related Coronavirus in a biological specimen.", "preferredTerm": "Severe Acute Respiratory Syndrome-related Coronavirus Measurement", "submissionValue": "Severe Acute Resp Syndro-Rel Coronavirus", "synonyms": ["SARS-CoV", "SARS-CoV-1", "Severe Acute Respiratory Syndrome-Related Coronavirus"]}, {"conceptId": "C171532", "definition": "A measurement of the severe acute respiratory syndrome Coronavirus 2 in a biological specimen.", "preferredTerm": "Severe Acute Respiratory Syndrome Coronavirus 2 Measurement", "submissionValue": "Severe Acute Resp Syndrome Coronavirus 2", "synonyms": ["SARS-CoV-2", "Severe Acute Resp Syndrome Coronavirus 2", "Severe Acute Respiratory Syndrome Coronavirus 2"]}, {"conceptId": "C166009", "definition": "A measurement of the invasion plasmid antigen H DNA from any members of the genus Shigella and/or enteroinvasive Escherichia coli in a biological specimen.", "preferredTerm": "Shigella and/or Enteroinvasive Escherichia coli ipaH DNA Measurement", "submissionValue": "Shigella/EIEC ipaH DNA", "synonyms": ["Invasion Plasmid Antigen H Gene", "Shigella species and/or Enteroinvasive Escherichia coli Invasion Plasmid Antigen H DNA", "Shigella/EIEC ipaH DNA", "ipaH gene"]}, {"conceptId": "C147460", "definition": "A measurement of the Staphylococcus aureus in a biological specimen.", "preferredTerm": "Staphylococcus aureus Measurement", "submissionValue": "Staphylococcus aureus", "synonyms": ["S. aureus", "Staphylococcus aureus"]}, {"conceptId": "C139112", "definition": "A measurement of the organisms that are assigned to the Stenotrophomonas maltophilia species in a biological specimen.", "preferredTerm": "Stenotrophomonas maltophilia Measurement", "submissionValue": "Stenotrophomonas maltophilia", "synonyms": ["Stenotrophomonas maltophilia"]}, {"conceptId": "C154824", "definition": "A measurement of the Streptococcus agalactiae antigen in a biological specimen.", "preferredTerm": "Streptococcus agalactiae Antigen Measurement", "submissionValue": "Streptococcus agalactiae Antigen", "synonyms": ["Streptococcus Group B Antigen", "Streptococcus agalactiae Antigen"]}, {"conceptId": "C122152", "definition": "A measurement of the Streptococcus pneumoniae antigen in a biological specimen.", "preferredTerm": "Streptococcus pneumoniae Antigen Measurement", "submissionValue": "Streptococcus pneumoniae Antigen", "synonyms": ["Streptococcus pneumoniae Antigen"]}, {"conceptId": "C142232", "definition": "A measurement of the Streptococcus pneumoniae IgG antibody in a biological specimen.", "preferredTerm": "Streptococcus pneumoniae IgG Antibody Measurement", "submissionValue": "Streptococcus pneumoniae IgG Antibody", "synonyms": ["Streptococcus pneumoniae IgG Antibody"]}, {"conceptId": "C154814", "definition": "A measurement of the Streptococcus pyogenes antigen in a biological specimen.", "preferredTerm": "Streptococcus pyogenes Antigen Measurement", "submissionValue": "Streptococcus pyogenes Antigen", "synonyms": ["Streptococcus pyogenes Antigen"]}, {"conceptId": "C92282", "definition": "A measurement of Streptolysin O Antibody in a biological specimen.", "preferredTerm": "Streptolysin O Antibody Measurement", "submissionValue": "Streptolysin O Antibody", "synonyms": ["Antistreptolysin O", "Streptolysin O Antibody"]}, {"conceptId": "C117858", "definition": "A measurement of strongyloides IgG antibody in a biological specimen.", "preferredTerm": "Strongyloides IgG Antibody Measurement", "submissionValue": "Strongyloides IgG Antibody", "synonyms": ["Strongyloides IgG Antibody"]}, {"conceptId": "C150862", "definition": "A measurement of the toxigenic strain of Clostridium difficile in a biological specimen.", "preferredTerm": "Toxigenic Clostridium difficile Measurement", "submissionValue": "Toxigenic Clostridium difficile", "synonyms": ["Toxigenic Clostridium difficile"]}, {"conceptId": "C150865", "definition": "A measurement of the toxin B-producing strain of Clostridium difficile in a biological specimen.", "preferredTerm": "Toxin B-Producing Clostridium difficile Measurement", "submissionValue": "Toxin B-Producing Clostridium difficile", "synonyms": ["Toxin B-Producing Clostridium difficile"]}, {"conceptId": "C139089", "definition": "A measurement of the Toxoplasma gondii IgG antibody in a biological specimen.", "preferredTerm": "Toxoplasma gondii IgG Antibody Measurement", "submissionValue": "Toxoplasma gondii IgG Antibody", "synonyms": ["Toxoplasma gondii IgG Antibody"]}, {"conceptId": "C166057", "definition": "A measurement of the Toxoplasma gondii IgG and/or IgM antibody in a biological specimen.", "preferredTerm": "Toxoplasma gondii IgG and/or IgM Antibody Measurement", "submissionValue": "Toxoplasma gondii IgG/IgM Antibody", "synonyms": ["Toxoplasma gondii IgG/IgM Antibody"]}, {"conceptId": "C139090", "definition": "A measurement of the Toxoplasma gondii IgM antibody in a biological specimen.", "preferredTerm": "Toxoplasma gondii IgM Antibody Measurement", "submissionValue": "Toxoplasma gondii IgM Antibody", "synonyms": ["Toxoplasma gondii IgM Antibody"]}, {"conceptId": "C132388", "definition": "A measurement of the total Treponema pallidum antibody in a biological specimen.", "preferredTerm": "Treponema pallidum Antibody Measurement", "submissionValue": "Treponema pallidum Antibody", "synonyms": ["Treponema pallidum Antibody"]}, {"conceptId": "C92238", "definition": "Examination of a biological specimen to detect the presence of any protozoan belonging to the Trichomonas genus.", "preferredTerm": "Trichomonas Screening", "submissionValue": "Trichomonas", "synonyms": ["Trichomonas"]}, {"conceptId": "C161403", "definition": "A measurement of the Trichomonas vaginalis in a biological specimen.", "preferredTerm": "Trichomonas vaginalis Measurement", "submissionValue": "Trichomonas vaginalis", "synonyms": ["Trichomonas vaginalis"]}, {"conceptId": "C154825", "definition": "A measurement of the microbial urease enzyme in a biological specimen.", "preferredTerm": "Urease Measurement", "submissionValue": "Urease", "synonyms": ["Urease"]}, {"conceptId": "C166008", "definition": "A measurement of the Vibrio cholerae and/or Vibrio parahaemolyticus and/or Vibrio vulnificus DNA in a biological specimen.", "preferredTerm": "Vibrio cholerae, Vibrio parahaemolyticus, and/or Vibrio vulnificus DNA Measurement", "submissionValue": "V. chol/parahaemolyticus/vulnificus DNA", "synonyms": ["V. chol/parahaemolyticus/vulnificus DNA", "Vibrio cholerae/parahaemolyticus/vulnificus DNA"]}, {"conceptId": "C117867", "definition": "A measurement of the total varicella zoster virus antibody in a biological specimen.", "preferredTerm": "Varicella Zoster Virus Antibody Measurement", "submissionValue": "Varicella Zoster Virus Antibody", "synonyms": ["Varicella Zoster Virus Antibody"]}, {"conceptId": "C98795", "definition": "A measurement of the Varicella Zoster virus IgA antibodies in a biological specimen.", "preferredTerm": "Varicella Zoster Virus IgA Antibody Measurement", "submissionValue": "Varicella Zoster Virus IgA Antibody", "synonyms": ["Varicella Zoster Virus IgA Antibody"]}, {"conceptId": "C98796", "definition": "A measurement of the Varicella Zoster virus IgG antibodies in a biological specimen.", "preferredTerm": "Varicella Zoster Virus IgG Antibody Measurement", "submissionValue": "Varicella Zoster Virus IgG Antibody", "synonyms": ["Varicella Zoster Virus IgG Antibody"]}, {"conceptId": "C98797", "definition": "A measurement of the Varicella Zoster virus IgM antibodies in a biological specimen.", "preferredTerm": "Varicella Zoster Virus IgM Antibody Measurement", "submissionValue": "Varicella Zoster Virus IgM Antibody", "synonyms": ["Varicella Zoster Virus IgM Antibody"]}, {"conceptId": "C166058", "definition": "A measurement of the Vibrio cholerae DNA in a biological specimen.", "preferredTerm": "Vibrio cholerae DNA Measurement", "submissionValue": "Vibrio cholerae DNA", "synonyms": ["Vibrio cholerae DNA"]}, {"conceptId": "C147448", "definition": "A measurement of the west Nile virus antibody in a biological specimen.", "preferredTerm": "West Nile Virus Antibody Measurement", "submissionValue": "West Nile Virus Antibody", "synonyms": ["West Nile Virus Antibody"]}, {"conceptId": "C106504", "definition": "A measurement of the budding yeast present in a biological specimen.", "preferredTerm": "Budding Yeast Measurement", "submissionValue": "Yeast Budding", "synonyms": ["Budding Yeast", "Yeast Budding"]}, {"conceptId": "C74664", "definition": "A measurement of the yeast cells present in a biological specimen.", "preferredTerm": "Yeast Cell Measurement", "submissionValue": "Yeast Cells", "synonyms": ["Yeast Cells"]}, {"conceptId": "C92239", "definition": "A measurement of the yeast hyphae present in a biological specimen.", "preferredTerm": "Yeast Hyphae Screening", "submissionValue": "Yeast Hyphae", "synonyms": ["Yeast Hyphae"]}, {"conceptId": "C147450", "definition": "A measurement of the yellow fever virus antibody in a biological specimen.", "preferredTerm": "Yellow Fever Virus Antibody Measurement", "submissionValue": "Yellow Fever Virus Antibody", "synonyms": ["Yellow Fever Virus Antibody"]}, {"conceptId": "C166059", "definition": "A measurement of the Yersinia enterocolitica DNA in a biological specimen.", "preferredTerm": "Yersinia enterocolitica DNA Measurement", "submissionValue": "Yersinia enterocolitica DNA", "synonyms": ["Yersinia enterocolitica DNA"]}, {"conceptId": "C132420", "definition": "A measurement of the Zaire ebolavirus present in a biological specimen.", "preferredTerm": "Zaire Ebolavirus Measurement", "submissionValue": "Zaire Ebolavirus", "synonyms": ["Zaire Ebolavirus"]}, {"conceptId": "C147451", "definition": "A measurement of the Zika virus antibody in a biological specimen.", "preferredTerm": "Zika Virus Antibody Measurement", "submissionValue": "Zika Virus Antibody", "synonyms": ["Zika Virus Antibody"]}]}