{"_links": {"parentPackage": {"href": "/mdr/ct/packages/sdtmct-2020-11-06", "title": "SDTM Controlled Terminology Package 43 Effective 2020-11-06", "type": "Terminology"}, "priorVersion": {"href": "/mdr/ct/packages/sdtmct-2020-06-26/codelists/C125744", "title": "CDISC Questionnaire Expanded DRS-PI Caregiver Version Test Name Terminology", "type": "Code List"}, "rootItem": {"href": "/mdr/root/ct/sdtmct/codelists/C125744", "title": "Version-agnostic anchor resource for codelist C125744", "type": "Root Value Domain"}, "self": {"href": "/mdr/ct/packages/sdtmct-2020-11-06/codelists/C125744", "title": "CDISC Questionnaire Expanded DRS-PI Caregiver Version Test Name Terminology", "type": "Code List"}}, "conceptId": "C125744", "definition": "Expanded Disability Rating Scale - Postacute Interview Caregiver Version test name.", "extensible": "false", "name": "Expanded Disability Rating Scale - Postacute Interview Caregiver Version Questionnaire Test Name", "preferredTerm": "CDISC Questionnaire Expanded DRS-PI Caregiver Version Test Name Terminology", "submissionValue": "ED1TN", "synonyms": ["Expanded Disability Rating Scale - Postacute Interview Caregiver Version Questionnaire Test Name"], "terms": [{"conceptId": "C125773", "definition": "Expanded Disability Rating Scale - Postacute Interview Caregiver Version - Is [name] able to communicate with you in a way that you and others clearly understand?", "preferredTerm": "Expanded DRS-PI Caregiver Version - Able to Communicate Clearly", "submissionValue": "ED1-Able to Communicate Clearly", "synonyms": ["ED1-Able to Communicate Clearly"]}, {"conceptId": "C125784", "definition": "Expanded Disability Rating Scale - Postacute Interview Caregiver Version - Can [name] dress and groom him/herself independently and appropriately or direct someone else in these activities without help or reminders?", "preferredTerm": "Expanded DRS-PI Caregiver Version - Can Dress and Groom Self Independently", "submissionValue": "ED1-Can Dress/Groom Independently", "synonyms": ["ED1-Can Dress/Groom Independently"]}, {"conceptId": "C125775", "definition": "Expanded Disability Rating Scale - Postacute Interview Caregiver Version - Is [name] able to give the correct date and time within a few seconds of being asked?", "preferredTerm": "Expanded DRS-PI Caregiver Version - Give Correct Date and Time When Asked", "submissionValue": "ED1-Correct Date and Time", "synonyms": ["ED1-Correct Date and Time"]}, {"conceptId": "C125778", "definition": "Expanded Disability Rating Scale - Postacute Interview Caregiver Version - Can [name] feed him/herself independently or manage tube feedings appropriately without help or reminders?", "preferredTerm": "Expanded DRS-PI Caregiver Version - Feed Independently Without Help", "submissionValue": "ED1-Feed Independently Without Help", "synonyms": ["ED1-Feed Independently Without Help"]}, {"conceptId": "C125776", "definition": "Expanded Disability Rating Scale - Postacute Interview Caregiver Version - Does [name] have only a few words that [s/he] uses over and over or does [s/he] express him/herself only through random answers, shouting or swearing?", "preferredTerm": "Expanded DRS-PI Caregiver Version - Use Few Words or Random Shouting", "submissionValue": "ED1-Few Words or Random Answers/Shouting", "synonyms": ["ED1-Few Words or Random Answers/Shouting"]}, {"conceptId": "C125788", "definition": "Expanded Disability Rating Scale - Postacute Interview Caregiver Version - Does [name] function completely independently? That is, [s/he] does not require any physical assistance, supervision, equipment, devices or reminders for cognitive, social, behavioral, emotional, and physical function?", "preferredTerm": "Expanded DRS-PI Caregiver Version - Function Completely Independently", "submissionValue": "ED1-Function Completely Independently", "synonyms": ["ED1-Function Completely Independently"]}, {"conceptId": "C125774", "definition": "Expanded Disability Rating Scale - Postacute Interview Caregiver Version - How do they communicate primarily?", "preferredTerm": "Expanded DRS-PI Caregiver Version - How They Communicate Primarily", "submissionValue": "ED1-How They Communicate Primarily", "synonyms": ["ED1-How They Communicate Primarily"]}, {"conceptId": "C125796", "definition": "Expanded Disability Rating Scale - Postacute Interview Caregiver Version - Can [name] function with complete independence in work or social situations?", "preferredTerm": "Expanded DRS-PI Caregiver Version - Function With Independent Work or Social Situations", "submissionValue": "ED1-Independent Work/Social Situations", "synonyms": ["ED1-Independent Work/Social Situations"]}, {"conceptId": "C125798", "definition": "Expanded Disability Rating Scale - Postacute Interview Caregiver Version - Can [name] keep track of time, schedules and appointments?", "preferredTerm": "Expanded DRS-PI Caregiver Version - Keep Track of Time", "submissionValue": "ED1-Keep Track of Time/Schedules", "synonyms": ["ED1-Keep Track of Time/Schedules"]}, {"conceptId": "C125785", "definition": "Expanded Disability Rating Scale - Postacute Interview Caregiver Version - Does [s/he] know how to bathe and wash?", "preferredTerm": "Expanded DRS-PI Caregiver Version - Know How to Bathe and Wash", "submissionValue": "ED1-Know How to Bathe/Wash", "synonyms": ["ED1-Know How to Bathe/Wash"]}, {"conceptId": "C125780", "definition": "Expanded Disability Rating Scale - Postacute Interview Caregiver Version - Does [name] know when meal or feeding times are?", "preferredTerm": "Expanded DRS-PI Caregiver Version - Know Meal Times", "submissionValue": "ED1-Know Meal Times", "synonyms": ["ED1-Know Meal Times"]}, {"conceptId": "C125783", "definition": "Expanded Disability Rating Scale - Postacute Interview Caregiver Version - Does [name] know when to use the toilet or to conduct bowel and bladder management?", "preferredTerm": "Expanded DRS-PI Caregiver Version - Know When to Use Toilet", "submissionValue": "ED1-Know When to Use Toilet", "synonyms": ["ED1-Know When to Use Toilet"]}, {"conceptId": "C125782", "definition": "Expanded Disability Rating Scale - Postacute Interview Caregiver Version - Does [name] understand how to manage their clothing or special equipment when toileting or in bowel and bladder management?", "preferredTerm": "Expanded DRS-PI Caregiver Version - Manage Clothing When Toileting", "submissionValue": "ED1-Manage Clothing When Toileting", "synonyms": ["ED1-Manage Clothing When Toileting"]}, {"conceptId": "C125777", "definition": "Expanded Disability Rating Scale - Postacute Interview Caregiver Version - Does [name] only moan, groan or make other sounds that are not understandable?", "preferredTerm": "Expanded DRS-PI Caregiver Version - Make Sounds Not Understandable", "submissionValue": "ED1-Moan/Groan/Sounds Not Understandable", "synonyms": ["ED1-Moan/Groan/Sounds Not Understandable"]}, {"conceptId": "C125795", "definition": "Expanded Disability Rating Scale - Postacute Interview Caregiver Version - Does [s/he] need 24-hour care and is not able to help with their own care at all?", "preferredTerm": "Expanded DRS-PI Caregiver Version - Need 24-Hour Care", "submissionValue": "ED1-Need 24-Hour Care", "synonyms": ["ED1-Need 24-Hour Care"]}, {"conceptId": "C125793", "definition": "Expanded Disability Rating Scale - Postacute Interview Caregiver Version - Does [s/he] take care of some of their needs but also need a helper who is always close by?", "preferredTerm": "Expanded DRS-PI Caregiver Version - Need a Helper Always Close By", "submissionValue": "ED1-Need a Helper Always Close By", "synonyms": ["ED1-Need a Helper Always Close By"]}, {"conceptId": "C125794", "definition": "Expanded Disability Rating Scale - Postacute Interview Caregiver Version - Does [s/he] need help with all major activities and the assistance of another person all the time?", "preferredTerm": "Expanded DRS-PI Caregiver Version - Need Help With All Major Activities", "submissionValue": "ED1-Need Help With All Major Activities", "synonyms": ["ED1-Need Help With All Major Activities"]}, {"conceptId": "C125799", "definition": "Expanded Disability Rating Scale - Postacute Interview Caregiver Version - How certain are you that [name] can perform in a wide variety of jobs of [his/her] choosing or manage a home independently or participate in school full-time?", "preferredTerm": "Expanded DRS-PI Caregiver Version - Perform Jobs or Manage a Home Independently", "submissionValue": "ED1-Perform Jobs, Manage Home/School", "synonyms": ["ED1-Perform Jobs, Manage Home/School"]}, {"conceptId": "C125792", "definition": "Expanded Disability Rating Scale - Postacute Interview Caregiver Version - Does [s/he] require assistance from another person to manage emotions and behavior?", "preferredTerm": "Expanded DRS-PI Caregiver Version - Require Assistance Managing Emotions", "submissionValue": "ED1-Require Assistance Managing Emotions", "synonyms": ["ED1-Require Assistance Managing Emotions"]}, {"conceptId": "C125791", "definition": "Expanded Disability Rating Scale - Postacute Interview Caregiver Version - Does [s/he] require assistance from another person in tasks that require thinking abilities?", "preferredTerm": "Expanded DRS-PI Caregiver Version - Require Assistance Thinking Tasks", "submissionValue": "ED1-Require Assistance Thinking Tasks", "synonyms": ["ED1-Require Assistance Thinking Tasks"]}, {"conceptId": "C125790", "definition": "Expanded Disability Rating Scale - Postacute Interview Caregiver Version - Does [name] require physical assistance from another person to meet daily needs?", "preferredTerm": "Expanded DRS-PI Caregiver Version - Require Physical Assistance", "submissionValue": "ED1-Require Physical Assistance", "synonyms": ["ED1-Require Physical Assistance"]}, {"conceptId": "C125789", "definition": "Expanded Disability Rating Scale - Postacute Interview Caregiver Version - Does [name] REQUIRE special aids or equipment such as a brace, walker, wheelchair, memory notebook, day planner, verbal reminders, prompts, cues, or alarm watch because of a disability?", "preferredTerm": "Expanded DRS-PI Caregiver Version - Require Special Aids or Equipment", "submissionValue": "ED1-Require Specific Aids/Equipment", "synonyms": ["ED1-Require Specific Aids/Equipment"]}, {"conceptId": "C125787", "definition": "Expanded Disability Rating Scale - Postacute Interview Caregiver Version - Can [s/he] start and finish these grooming activities without prompting?", "preferredTerm": "Expanded DRS-PI Caregiver Version - Start and Finish Grooming Activities", "submissionValue": "ED1-Start/Finish Grooming Activities", "synonyms": ["ED1-Start/Finish Grooming Activities"]}, {"conceptId": "C125800", "definition": "Expanded Disability Rating Scale - Postacute Interview Caregiver Version - How certain are you that [name] can be successful at work, school or in home management with some reduction in the work load or with other accommodations due to disabilities?", "preferredTerm": "Expanded DRS-PI Caregiver Version - Successful With Accommodations", "submissionValue": "ED1-Successful With Accommodations", "synonyms": ["ED1-Successful With Accommodations"]}, {"conceptId": "C125801", "definition": "Expanded Disability Rating Scale - Postacute Interview Caregiver Version - How certain are you that [name] can be successful at work, school or in home management but with limited choices in jobs or school courses due to disabilities?", "preferredTerm": "Expanded DRS-PI Caregiver Version - Successful With Limited Choices", "submissionValue": "ED1-Successful With Limited Choices", "synonyms": ["ED1-Successful With Limited Choices"]}, {"conceptId": "C125779", "definition": "Expanded Disability Rating Scale - Postacute Interview Caregiver Version - Does [name] understand what eating or feeding utensils or equipment are for and how they should be used?", "preferredTerm": "Expanded DRS-PI Caregiver Version - Understand Feeding Utensils", "submissionValue": "ED1-Understand Feeding Utensils", "synonyms": ["ED1-Understand Feeding Utensils"]}, {"conceptId": "C125786", "definition": "Expanded Disability Rating Scale - Postacute Interview Caregiver Version - Does [s/he] understand how to get dressed?", "preferredTerm": "Expanded DRS-PI Caregiver Version - Understand How to Get Dressed", "submissionValue": "ED1-Understand How to Get Dressed", "synonyms": ["ED1-Understand How to Get Dressed"]}, {"conceptId": "C125797", "definition": "Expanded Disability Rating Scale - Postacute Interview Caregiver Version - Can [name] understand, remember, and follow directions?", "preferredTerm": "Expanded DRS-PI Caregiver Version - Understand and Follow Directions", "submissionValue": "ED1-Understand/Follow Directions", "synonyms": ["ED1-Understand/Follow Directions"]}, {"conceptId": "C125781", "definition": "Expanded Disability Rating Scale - Postacute Interview Caregiver Version - Can [name] use the toilet or manage their bowel and bladder routine independently and appropriately without help or reminders?", "preferredTerm": "Expanded DRS-PI Caregiver Version - Use Toilet Independently", "submissionValue": "ED1-Use Toilet Independently", "synonyms": ["ED1-Use Toilet Independently"]}, {"conceptId": "C125802", "definition": "Expanded Disability Rating Scale - Postacute Interview Caregiver Version - How certain are you that [name] can be able to work at home or in a special setting like a sheltered workshop in which the work is very routine and there is very frequent supervision and support?", "preferredTerm": "Expanded DRS-PI Caregiver Version - Work With Frequent Supervision and Support", "submissionValue": "ED1-Work With Frequent Support", "synonyms": ["ED1-Work With Frequent Support"]}]}