{"_links": {"parentPackage": {"href": "/mdr/ct/packages/sdtmct-2020-11-06", "title": "SDTM Controlled Terminology Package 43 Effective 2020-11-06", "type": "Terminology"}, "priorVersion": {"href": "/mdr/ct/packages/sdtmct-2020-06-26/codelists/C127264", "title": "CDISC SDTM Culture Medium Type Terminology", "type": "Code List"}, "rootItem": {"href": "/mdr/root/ct/sdtmct/codelists/C127264", "title": "Version-agnostic anchor resource for codelist C127264", "type": "Root Value Domain"}, "self": {"href": "/mdr/ct/packages/sdtmct-2020-11-06/codelists/C127264", "title": "CDISC SDTM Culture Medium Type Terminology", "type": "Code List"}}, "conceptId": "C127264", "definition": "Terminology relevant to the type of medium used to culture a specimen.", "extensible": "true", "name": "Culture Medium Type", "preferredTerm": "CDISC SDTM Culture Medium Type Terminology", "submissionValue": "CLTMDTYP", "synonyms": ["Culture Medium Type"], "terms": [{"conceptId": "C127517", "definition": "A solid growth medium mainly consisting of peptones, sodium chloride, meat extracts, and mammalian blood, which is developed for the cultivation of fastidious organisms. The blood in the formulation promotes the presence and visualization of hemolytic reactions, enabling the detection and differentiation of hemolytic bacteria.", "preferredTerm": "Blood Agar Growth Medium", "submissionValue": "BLOOD AGAR"}, {"conceptId": "C150829", "definition": "A solid growth medium mainly consisting of various peptones, taurocholate and a chromogenic substrate which is developed primarily for the isolation and cultivation of Clostridium difficile.", "preferredTerm": "Chromogenic Selective Medium", "submissionValue": "CHROMOGENIC SELECTIVE MEDIUM"}, {"conceptId": "C150828", "definition": "A solid growth medium mainly consisting of proteose peptone, fructose, cycloserine, cefoxitin, fructose, and egg yolk, which is developed primarily for the isolation and cultivation of Clostridium difficile.", "preferredTerm": "Cycloserine-Cefoxitin Fructose Agar", "submissionValue": "CYCLOSERINE-CEFOXITIN FRUCTOSE AGAR", "synonyms": ["CCFA"]}, {"conceptId": "C128949", "definition": "A liquid growth medium mainly consisting of sodium dihydrogen phosphate, potassium dihydrogen phosphate, magnesium sulphate, trisodium citrate, L-asparagine and phenol red, which is developed for the culture and recovery of Mycobacteria.", "preferredTerm": "Kirchner Growth Medium", "submissionValue": "KIRCHNER MEDIUM"}, {"conceptId": "C85507", "definition": "A growth medium mainly consisting of malachite green, glycerol, asparagine, coagulated eggs, and mineral salts which is developed especially for the cultivation of mycobacterium.", "preferredTerm": "Lowenstein-Jensen Medium", "submissionValue": "LOWENSTEIN JENSEN MEDIUM", "synonyms": ["LJ medium"]}, {"conceptId": "C128950", "definition": "A liquid and selective growth medium that is modified based on the Kirchner medium by the addition of a mixture of antimicrobial agents (typically polymyxin B, amphotericin B, carbenicillin, and trimethoprim) and colorless tetrazolium salt as a growth indicator, which is developed for the cultivation of mycobacterium.", "preferredTerm": "MB Redox Broth Growth Medium", "submissionValue": "MB REDOX BROTH"}, {"conceptId": "C85509", "definition": "A solid growth medium mainly consisting of oleic acid-albumin enrichment, glycerol, dextrose and inorganic compounds, which is developed especially for the primary and secondary cultivation of mycobacterium.", "preferredTerm": "Middlebrook 7H10 Growth Medium", "submissionValue": "MIDDLEBROOK 7H10 AGAR"}, {"conceptId": "C127518", "definition": "A solid and selective growth medium that is modified based on the Middlebrook 7H10 agar by the addition of four antimicrobial agents: polymyxin B, carbenicillin, amphotericin B and trimethoprim lactate.", "preferredTerm": "Middlebrook 7H10S Growth Medium", "submissionValue": "MIDDLEBROOK 7H10S AGAR", "synonyms": ["Middlebrook 7H10 Selective Agar"]}, {"conceptId": "C85510", "definition": "A solid growth medium that is modified based on the Middlebrook 7H10 agar by the addition of pancreatic digest of casein.", "preferredTerm": "Middlebrook 7H11 Growth Medium", "submissionValue": "MIDDLEBROOK 7H11 AGAR"}, {"conceptId": "C127519", "definition": "A solid and selective growth medium that is modified based on the Middlebrook 7H11 agar by the addition of four antimicrobial agents: polymyxin B, carbenicillin, amphotericin B and trimethoprim lactate.", "preferredTerm": "Middlebrook 7H11S Growth Medium", "submissionValue": "MIDDLEBROOK 7H11S AGAR", "synonyms": ["Middlebrook 7H11 Selective Agar"]}, {"conceptId": "C127520", "definition": "A liquid growth medium that is modified based on the Middlebrook 7H9 broth by the addition of bovine serum albumin, casein hydrolysate, catalase and 14C-labelled palmitic acid.", "preferredTerm": "Middlebrook 7H12 Growth Medium", "submissionValue": "MIDDLEBROOK 7H12 BROTH"}, {"conceptId": "C127521", "definition": "A liquid growth medium mainly consisting of albumin, glycerol, dextrose and inorganic compounds, which is developed especially for the primary and secondary cultivation of mycobacterium.", "preferredTerm": "Middlebrook 7H9 Growth Medium", "submissionValue": "MIDDLEBROOK 7H9 BROTH"}]}