{"_links": {"parentPackage": {"href": "/mdr/ct/packages/sdtmct-2020-11-06", "title": "SDTM Controlled Terminology Package 43 Effective 2020-11-06", "type": "Terminology"}, "priorVersion": {"href": "/mdr/ct/packages/sdtmct-2020-06-26/codelists/C132316", "title": "CDISC SDTM Ebola Virus Findings About Test Code Terminology", "type": "Code List"}, "rootItem": {"href": "/mdr/root/ct/sdtmct/codelists/C132316", "title": "Version-agnostic anchor resource for codelist C132316", "type": "Root Value Domain"}, "self": {"href": "/mdr/ct/packages/sdtmct-2020-11-06/codelists/C132316", "title": "CDISC SDTM Ebola Virus Findings About Test Code Terminology", "type": "Code List"}}, "conceptId": "C132316", "definition": "Terminology relevant to the test codes that describe findings about an Ebola virus infection event or intervention.", "extensible": "true", "name": "Ebola Virus Findings About Test Code", "preferredTerm": "CDISC SDTM Ebola Virus Findings About Test Code Terminology", "submissionValue": "EBFATSCD", "synonyms": ["Ebola Virus Findings About Test Code"], "terms": [{"conceptId": "C25285", "definition": "The length of a straight line passing through the center of a circle or sphere and connecting two points on the circumference. (NCI)", "preferredTerm": "Diameter", "submissionValue": "DIAMETER", "synonyms": ["Diameter"]}, {"conceptId": "C127786", "definition": "An indication as to whether something has happened, such as an event or incident.", "preferredTerm": "Occurrence Indicator", "submissionValue": "OCCUR", "synonyms": ["Occurrence Indicator"]}, {"conceptId": "C25676", "definition": "The degree of something undesirable.", "preferredTerm": "Severity", "submissionValue": "SEV", "synonyms": ["Severity/Intensity"]}]}