{"_links": {"parentPackage": {"href": "/mdr/ct/packages/sdtmct-2020-11-06", "title": "SDTM Controlled Terminology Package 43 Effective 2020-11-06", "type": "Terminology"}, "priorVersion": {"href": "/mdr/ct/packages/sdtmct-2020-06-26/codelists/C132314", "title": "CDISC SDTM Specimen Collection Method Terminology", "type": "Code List"}, "rootItem": {"href": "/mdr/root/ct/sdtmct/codelists/C132314", "title": "Version-agnostic anchor resource for codelist C132314", "type": "Root Value Domain"}, "self": {"href": "/mdr/ct/packages/sdtmct-2020-11-06/codelists/C132314", "title": "CDISC SDTM Specimen Collection Method Terminology", "type": "Code List"}}, "conceptId": "C132314", "definition": "Terminology relevant to the method used in specimen collection.", "extensible": "true", "name": "Specimen Collection Method", "preferredTerm": "CDISC SDTM Specimen Collection Method Terminology", "submissionValue": "CLMETH", "synonyms": ["Specimen Collection Method"], "terms": [{"conceptId": "C15631", "definition": "A technique in which suction is used to remove bodily fluid or tissue.", "preferredTerm": "Aspiration", "submissionValue": "ASPIRATION"}, {"conceptId": "C15189", "definition": "The removal of tissue specimens or fluid from the living body for microscopic examination, performed to establish a diagnosis.", "preferredTerm": "Biopsy", "submissionValue": "BIOPSY"}, {"conceptId": "C85859", "definition": "A technique in which material is cleared from the throat or lungs by coughing it up and spitting it out.", "preferredTerm": "Expectorate", "submissionValue": "EXPECTORATION"}, {"conceptId": "C15361", "definition": "The removal of tissue specimens or fluid from the living body with a thin needle.", "preferredTerm": "Fine-Needle Aspiration", "submissionValue": "FINE NEEDLE ASPIRATION"}, {"conceptId": "C132353", "definition": "A technique in which hypotonic saline is inhaled, followed by expectoration.", "preferredTerm": "Induced Expectoration Technique", "submissionValue": "INDUCED EXPECTORATION"}, {"conceptId": "C38068", "definition": "A technique in which a fluid is introduced and collected from a body cavity or location.", "preferredTerm": "Lavage", "submissionValue": "LAVAGE", "synonyms": ["Wash"]}, {"conceptId": "C17627", "definition": "A technique in which a tufted material on the end of a stick is rubbed against a surface.", "preferredTerm": "Swab", "submissionValue": "SWAB"}]}