{"_links": {"parentPackage": {"href": "/mdr/ct/packages/sdtmct-2020-11-06", "title": "SDTM Controlled Terminology Package 43 Effective 2020-11-06", "type": "Terminology"}, "priorVersion": {"href": "/mdr/ct/packages/sdtmct-2020-06-26/codelists/C138255", "title": "CDISC Questionnaire PedsQL Neuromuscular Module Version 3.0 Parent Report for Young Child Test Code Terminology", "type": "Code List"}, "rootItem": {"href": "/mdr/root/ct/sdtmct/codelists/C138255", "title": "Version-agnostic anchor resource for codelist C138255", "type": "Root Value Domain"}, "self": {"href": "/mdr/ct/packages/sdtmct-2020-11-06/codelists/C138255", "title": "CDISC Questionnaire PedsQL Neuromuscular Module Version 3.0 Parent Report for Young Child Test Code Terminology", "type": "Code List"}}, "conceptId": "C138255", "definition": "Pediatric Quality of Life Neuromuscular Module Version 3 Young Child Parent Report test code.", "extensible": "false", "name": "Pediatric Quality of Life Neuromuscular Module Version 3 Young Child Parent Report Questionnaire Test Code", "preferredTerm": "CDISC Questionnaire PedsQL Neuromuscular Module Version 3.0 Parent Report for Young Child Test Code Terminology", "submissionValue": "PQL08TC", "synonyms": ["Pediatric Quality of Life Neuromuscular Module Version 3 Young Child Parent Report Questionnaire Test Code"], "terms": [{"conceptId": "C138807", "definition": "Pediatric Quality of Life Neuromuscular Module Version 3 Young Child Parent Report - In the past one month, how much of a problem has this been for your child: It is hard for my child to breathe.", "preferredTerm": "PedsQL Neuromuscular Module Version 3.0 Parent Report for Young Child - Hard to Breathe", "submissionValue": "PQL0801", "synonyms": ["PQL08-Hard to Breathe"]}, {"conceptId": "C138808", "definition": "Pediatric Quality of Life Neuromuscular Module Version 3 Young Child Parent Report - In the past one month, how much of a problem has this been for your child: My child gets sick easily.", "preferredTerm": "PedsQL Neuromuscular Module Version 3.0 Parent Report for Young Child - Get Sick Easily", "submissionValue": "PQL0802", "synonyms": ["PQL08-Get Sick Easily"]}, {"conceptId": "C138809", "definition": "Pediatric Quality of Life Neuromuscular Module Version 3 Young Child Parent Report - In the past one month, how much of a problem has this been for your child: My child gets sores and/or rashes.", "preferredTerm": "PedsQL Neuromuscular Module Version 3.0 Parent Report for Young Child - Get Sores and/or Rashes", "submissionValue": "PQL0803", "synonyms": ["PQL08-Get Sores and/or Rashes"]}, {"conceptId": "C138810", "definition": "Pediatric Quality of Life Neuromuscular Module Version 3 Young Child Parent Report - In the past one month, how much of a problem has this been for your child: My child's legs hurt.", "preferredTerm": "PedsQL Neuromuscular Module Version 3.0 Parent Report for Young Child - Legs Hurt", "submissionValue": "PQL0804", "synonyms": ["PQL08-Legs Hurt"]}, {"conceptId": "C138811", "definition": "Pediatric Quality of Life Neuromuscular Module Version 3 Young Child Parent Report - In the past one month, how much of a problem has this been for your child: My child feels tired.", "preferredTerm": "PedsQL Neuromuscular Module Version 3.0 Parent Report for Young Child - Feel Tired", "submissionValue": "PQL0805", "synonyms": ["PQL08-Feel Tired"]}, {"conceptId": "C138812", "definition": "Pediatric Quality of Life Neuromuscular Module Version 3 Young Child Parent Report - In the past one month, how much of a problem has this been for your child: My child's back feels stiff.", "preferredTerm": "PedsQL Neuromuscular Module Version 3.0 Parent Report for Young Child - Back Feels Stiff", "submissionValue": "PQL0806", "synonyms": ["PQL08-Back Feels Stiff"]}, {"conceptId": "C138813", "definition": "Pediatric Quality of Life Neuromuscular Module Version 3 Young Child Parent Report - In the past one month, how much of a problem has this been for your child: My child wakes up tired.", "preferredTerm": "PedsQL Neuromuscular Module Version 3.0 Parent Report for Young Child - Wake Up Tired", "submissionValue": "PQL0807", "synonyms": ["PQL08-Wake Up Tired"]}, {"conceptId": "C138814", "definition": "Pediatric Quality of Life Neuromuscular Module Version 3 Young Child Parent Report - In the past one month, how much of a problem has this been for your child: My child's hands are weak.", "preferredTerm": "PedsQL Neuromuscular Module Version 3.0 Parent Report for Young Child - Hands Are Weak", "submissionValue": "PQL0808", "synonyms": ["PQL08-Hands Are Weak"]}, {"conceptId": "C138815", "definition": "Pediatric Quality of Life Neuromuscular Module Version 3 Young Child Parent Report - In the past one month, how much of a problem has this been for your child: It is hard for my child to use the bathroom.", "preferredTerm": "PedsQL Neuromuscular Module Version 3.0 Parent Report for Young Child - Hard to Use Bathroom", "submissionValue": "PQL0809", "synonyms": ["PQL08-Hard to Use Bathroom"]}, {"conceptId": "C138816", "definition": "Pediatric Quality of Life Neuromuscular Module Version 3 Young Child Parent Report - In the past one month, how much of a problem has this been for your child: It is hard for my child to gain or lose weight when he or she wants to.", "preferredTerm": "PedsQL Neuromuscular Module Version 3.0 Parent Report for Young Child - Hard to Gain or Lose Weight", "submissionValue": "PQL0810", "synonyms": ["PQL08-Hard to Gain/Lose Weight"]}, {"conceptId": "C138817", "definition": "Pediatric Quality of Life Neuromuscular Module Version 3 Young Child Parent Report - In the past one month, how much of a problem has this been for your child: It is hard for my child to use his or her hands.", "preferredTerm": "PedsQL Neuromuscular Module Version 3.0 Parent Report for Young Child - Hard to Use Hands", "submissionValue": "PQL0811", "synonyms": ["PQL08-Hard to Use Hands"]}, {"conceptId": "C138818", "definition": "Pediatric Quality of Life Neuromuscular Module Version 3 Young Child Parent Report - In the past one month, how much of a problem has this been for your child: It is hard for my child to swallow food.", "preferredTerm": "PedsQL Neuromuscular Module Version 3.0 Parent Report for Young Child - Hard to Swallow Food", "submissionValue": "PQL0812", "synonyms": ["PQL08-Hard to Swallow Food"]}, {"conceptId": "C138819", "definition": "Pediatric Quality of Life Neuromuscular Module Version 3 Young Child Parent Report - In the past one month, how much of a problem has this been for your child: It takes my child a long time to bathe or shower.", "preferredTerm": "PedsQL Neuromuscular Module Version 3.0 Parent Report for Young Child - Long Time to Bathe or Shower", "submissionValue": "PQL0813", "synonyms": ["PQL08-Long Time to Bathe/Shower"]}, {"conceptId": "C138820", "definition": "Pediatric Quality of Life Neuromuscular Module Version 3 Young Child Parent Report - In the past one month, how much of a problem has this been for your child: My child gets hurt accidentally.", "preferredTerm": "PedsQL Neuromuscular Module Version 3.0 Parent Report for Young Child - Get Hurt Accidentally", "submissionValue": "PQL0814", "synonyms": ["PQL08-Get Hurt Accidentally"]}, {"conceptId": "C138821", "definition": "Pediatric Quality of Life Neuromuscular Module Version 3 Young Child Parent Report - In the past one month, how much of a problem has this been for your child: My child takes a long time to eat.", "preferredTerm": "PedsQL Neuromuscular Module Version 3.0 Parent Report for Young Child - Take Long Time to Eat", "submissionValue": "PQL0815", "synonyms": ["PQL08-Take Long Time to Eat"]}, {"conceptId": "C138822", "definition": "Pediatric Quality of Life Neuromuscular Module Version 3 Young Child Parent Report - In the past one month, how much of a problem has this been for your child: It is hard for my child to turn him or herself during the night.", "preferredTerm": "PedsQL Neuromuscular Module Version 3.0 Parent Report for Young Child - Hard to Turn During Night", "submissionValue": "PQL0816", "synonyms": ["PQL08-Hard to Turn During Night"]}, {"conceptId": "C138823", "definition": "Pediatric Quality of Life Neuromuscular Module Version 3 Young Child Parent Report - In the past one month, how much of a problem has this been for your child: It is hard for my child to go places with his or her equipment.", "preferredTerm": "PedsQL Neuromuscular Module Version 3.0 Parent Report for Young Child - Hard to Go Places With Equipment", "submissionValue": "PQL0817", "synonyms": ["PQL08-Hard to Go Places With Equipment"]}, {"conceptId": "C138824", "definition": "Pediatric Quality of Life Neuromuscular Module Version 3 Young Child Parent Report - In the past one month, how much of a problem has this been for your child: It is hard for my child to tell the doctors and nurses how he or she feels.", "preferredTerm": "PedsQL Neuromuscular Module Version 3.0 Parent Report for Young Child - Hard Tell Doctors and Nurses How Feel", "submissionValue": "PQL0818", "synonyms": ["PQL08-Hard Tell Doctors/Nurses How Feel"]}, {"conceptId": "C138825", "definition": "Pediatric Quality of Life Neuromuscular Module Version 3 Young Child Parent Report - In the past one month, how much of a problem has this been for your child: It is hard for my child to ask the doctors and nurses questions.", "preferredTerm": "PedsQL Neuromuscular Module Version 3.0 Parent Report for Young Child - Hard Ask Doctors and Nurses Questions", "submissionValue": "PQL0819", "synonyms": ["PQL08-Hard Ask Doctors/Nurses Questions"]}, {"conceptId": "C138826", "definition": "Pediatric Quality of Life Neuromuscular Module Version 3 Young Child Parent Report - In the past one month, how much of a problem has this been for your child: It is hard for my child to explain his or her illness to other people.", "preferredTerm": "PedsQL Neuromuscular Module Version 3.0 Parent Report for Young Child - Hard Explain Illness to People", "submissionValue": "PQL0820", "synonyms": ["PQL08-Hard Explain Illness to People"]}, {"conceptId": "C138827", "definition": "Pediatric Quality of Life Neuromuscular Module Version 3 Young Child Parent Report - In the past one month, how much of a problem has this been for your child: It is hard for our family to plan activities like vacations.", "preferredTerm": "PedsQL Neuromuscular Module Version 3.0 Parent Report for Young Child - Hard for Family to Plan Activities", "submissionValue": "PQL0821", "synonyms": ["PQL08-Hard for Family to Plan Activities"]}, {"conceptId": "C138828", "definition": "Pediatric Quality of Life Neuromuscular Module Version 3 Young Child Parent Report - In the past one month, how much of a problem has this been for your child: It is hard for our family to get enough rest.", "preferredTerm": "PedsQL Neuromuscular Module Version 3.0 Parent Report for Young Child - Hard for Family to Rest", "submissionValue": "PQL0822", "synonyms": ["PQL08-Hard for Family to Rest"]}, {"conceptId": "C138829", "definition": "Pediatric Quality of Life Neuromuscular Module Version 3 Young Child Parent Report - In the past one month, how much of a problem has this been for your child: I think money is a problem in our family.", "preferredTerm": "PedsQL Neuromuscular Module Version 3.0 Parent Report for Young Child - Money Problem in Our Family", "submissionValue": "PQL0823", "synonyms": ["PQL08-Money Problem in Our Family"]}, {"conceptId": "C138830", "definition": "Pediatric Quality of Life Neuromuscular Module Version 3 Young Child Parent Report - In the past one month, how much of a problem has this been for your child: I think our family has a lot of problems.", "preferredTerm": "PedsQL Neuromuscular Module Version 3.0 Parent Report for Young Child - Family Has Lot of Problems", "submissionValue": "PQL0824", "synonyms": ["PQL08-Family Has Lot of Problems"]}, {"conceptId": "C138831", "definition": "Pediatric Quality of Life Neuromuscular Module Version 3 Young Child Parent Report - In the past one month, how much of a problem has this been for your child: My child does not have the equipment he or she needs.", "preferredTerm": "PedsQL Neuromuscular Module Version 3.0 Parent Report for Young Child - Do Not Have Equipment Need", "submissionValue": "PQL0825", "synonyms": ["PQL08-Do Not Have Equipment Need"]}]}