{"_links": {"parentPackage": {"href": "/mdr/ct/packages/sdtmct-2020-11-06", "title": "SDTM Controlled Terminology Package 43 Effective 2020-11-06", "type": "Terminology"}, "priorVersion": {"href": "/mdr/ct/packages/sdtmct-2020-06-26/codelists/C150783", "title": "CDISC Questionnaire FKSI-DRS Version 4 Test Name Terminology", "type": "Code List"}, "rootItem": {"href": "/mdr/root/ct/sdtmct/codelists/C150783", "title": "Version-agnostic anchor resource for codelist C150783", "type": "Root Value Domain"}, "self": {"href": "/mdr/ct/packages/sdtmct-2020-11-06/codelists/C150783", "title": "CDISC Questionnaire FKSI-DRS Version 4 Test Name Terminology", "type": "Code List"}}, "conceptId": "C150783", "definition": "Functional Assessment of Cancer Therapy-Kidney Symptom Index-Disease-Related Symptoms Version 4 test name.", "extensible": "false", "name": "Functional Assessment of Cancer Therapy-Kidney Symptom Index-Disease-Related Symptoms Version 4 Questionnaire Test Name", "preferredTerm": "CDISC Questionnaire FKSI-DRS Version 4 Test Name Terminology", "submissionValue": "FAC041TN", "synonyms": ["Functional Assessment of Cancer Therapy-Kidney Symptom Index-Disease-Related Symptoms Version 4 Questionnaire Test Name"], "terms": [{"conceptId": "C151278", "definition": "Functional Assessment of Cancer Therapy-Kidney Symptom Index-Disease-Related Symptoms Version 4 - I am bothered by fevers (episodes of high body temperature).", "preferredTerm": "FKSI-DRS Version 4 - I Am Bothered by Fevers", "submissionValue": "FAC041-I Am Bothered by Fevers", "synonyms": ["FAC041-I Am Bothered by Fevers"]}, {"conceptId": "C151273", "definition": "Functional Assessment of Cancer Therapy-Kidney Symptom Index-Disease-Related Symptoms Version 4 - I am losing weight.", "preferredTerm": "FKSI-DRS Version 4 - I Am Losing Weight", "submissionValue": "FAC041-I Am Losing Weight", "synonyms": ["FAC041-I Am Losing Weight"]}, {"conceptId": "C151275", "definition": "Functional Assessment of Cancer Therapy-Kidney Symptom Index-Disease-Related Symptoms Version 4 - I feel fatigued.", "preferredTerm": "FKSI-DRS Version 4 - I Feel Fatigued", "submissionValue": "FAC041-I Feel Fatigued", "synonyms": ["FAC041-I Feel Fatigued"]}, {"conceptId": "C151271", "definition": "Functional Assessment of Cancer Therapy-Kidney Symptom Index-Disease-Related Symptoms Version 4 - I have a lack of energy.", "preferredTerm": "FKSI-DRS Version 4 - I Have a Lack of Energy", "submissionValue": "FAC041-I Have a Lack of Energy", "synonyms": ["FAC041-I Have a Lack of Energy"]}, {"conceptId": "C151277", "definition": "Functional Assessment of Cancer Therapy-Kidney Symptom Index-Disease-Related Symptoms Version 4 - I have been coughing.", "preferredTerm": "FKSI-DRS Version 4 - I Have Been Coughing", "submissionValue": "FAC041-I Have Been Coughing", "synonyms": ["FAC041-I Have Been Coughing"]}, {"conceptId": "C151276", "definition": "Functional Assessment of Cancer Therapy-Kidney Symptom Index-Disease-Related Symptoms Version 4 - I have been short of breath.", "preferredTerm": "FKSI-DRS Version 4 - I Have Been Short of Breath", "submissionValue": "FAC041-I Have Been Short of Breath", "synonyms": ["FAC041-I Have Been Short of Breath"]}, {"conceptId": "C151274", "definition": "Functional Assessment of Cancer Therapy-Kidney Symptom Index-Disease-Related Symptoms Version 4 - I have bone pain.", "preferredTerm": "FKSI-DRS Version 4 - I Have Bone Pain", "submissionValue": "FAC041-I Have Bone Pain", "synonyms": ["FAC041-I Have Bone Pain"]}, {"conceptId": "C151279", "definition": "Functional Assessment of Cancer Therapy-Kidney Symptom Index-Disease-Related Symptoms Version 4 - I have had blood in my urine.", "preferredTerm": "FKSI-DRS Version 4 - I Have Had Blood in My Urine", "submissionValue": "FAC041-I Have Had Blood in My Urine", "synonyms": ["FAC041-I Have Had Blood in My Urine"]}, {"conceptId": "C151272", "definition": "Functional Assessment of Cancer Therapy-Kidney Symptom Index-Disease-Related Symptoms Version 4 - I have pain.", "preferredTerm": "FKSI-DRS Version 4 - I Have Pain", "submissionValue": "FAC041-I Have Pain", "synonyms": ["FAC041-I Have Pain"]}]}