{"_links": {"parentPackage": {"href": "/mdr/ct/packages/sdtmct-2020-11-06", "title": "SDTM Controlled Terminology Package 43 Effective 2020-11-06", "type": "Terminology"}, "priorVersion": {"href": "/mdr/ct/packages/sdtmct-2020-06-26/codelists/C150812", "title": "CDISC SDTM CDAD Findings About Test Code Terminology", "type": "Code List"}, "rootItem": {"href": "/mdr/root/ct/sdtmct/codelists/C150812", "title": "Version-agnostic anchor resource for codelist C150812", "type": "Root Value Domain"}, "self": {"href": "/mdr/ct/packages/sdtmct-2020-11-06/codelists/C150812", "title": "CDISC SDTM CDAD Findings About Test Code Terminology", "type": "Code List"}}, "conceptId": "C150812", "definition": "Terminology relevant to the test codes that describe findings about Clostridium difficile-associated diarrhea event or intervention.", "extensible": "true", "name": "CDAD Findings About Test Code", "preferredTerm": "CDISC SDTM CDAD Findings About Test Code Terminology", "submissionValue": "CDFATSCD", "synonyms": ["CDAD Findings About Test Code"], "terms": [{"conceptId": "C124281", "definition": "The total number of episodes that have occurred for the condition.", "preferredTerm": "Number of Episodes", "submissionValue": "EPSDNUM", "synonyms": ["Number of Episodes"]}, {"conceptId": "C25676", "definition": "The degree of something undesirable.", "preferredTerm": "Severity", "submissionValue": "SEV", "synonyms": ["Severity/Intensity"]}, {"conceptId": "C74720", "definition": "A measurement of the volume of a biological specimen.", "preferredTerm": "Volume Measurement", "submissionValue": "VOL", "synonyms": ["Volume"]}]}