{"_links": {"parentPackage": {"href": "/mdr/ct/packages/sdtmct-2020-11-06", "title": "SDTM Controlled Terminology Package 43 Effective 2020-11-06", "type": "Terminology"}, "priorVersion": {"href": "/mdr/ct/packages/sdtmct-2020-06-26/codelists/C154685", "title": "CDISC SDTM Nutrition Findings About Test Code Terminology", "type": "Code List"}, "rootItem": {"href": "/mdr/root/ct/sdtmct/codelists/C154685", "title": "Version-agnostic anchor resource for codelist C154685", "type": "Root Value Domain"}, "self": {"href": "/mdr/ct/packages/sdtmct-2020-11-06/codelists/C154685", "title": "CDISC SDTM Nutrition Findings About Test Code Terminology", "type": "Code List"}}, "conceptId": "C154685", "definition": "Terminology relevant to the test codes that describe findings about a nutrition event or intervention.", "extensible": "true", "name": "Nutrition Findings About Test Code", "preferredTerm": "CDISC SDTM Nutrition Findings About Test Code Terminology", "submissionValue": "NTFATSCD", "synonyms": ["Nutrition Findings About Test Code"], "terms": [{"conceptId": "C25515", "definition": "The number of times an event occurs within a given time period.", "preferredTerm": "Temporal Frequency", "submissionValue": "EVENTFRQ", "synonyms": ["Event Frequency"]}, {"conceptId": "C127786", "definition": "An indication as to whether something has happened, such as an event or incident.", "preferredTerm": "Occurrence Indicator", "submissionValue": "OCCUR", "synonyms": ["Occurrence Indicator"]}, {"conceptId": "C25676", "definition": "The degree of something undesirable.", "preferredTerm": "Severity", "submissionValue": "SEV", "synonyms": ["Severity/Intensity"]}]}