{"_links": {"parentPackage": {"href": "/mdr/ct/packages/sdtmct-2020-11-06", "title": "SDTM Controlled Terminology Package 43 Effective 2020-11-06", "type": "Terminology"}, "priorVersion": {"href": "/mdr/ct/packages/sdtmct-2020-06-26/codelists/C163027", "title": "CDISC SDTM Type 1 Diabetes Findings About Test Code Terminology", "type": "Code List"}, "rootItem": {"href": "/mdr/root/ct/sdtmct/codelists/C163027", "title": "Version-agnostic anchor resource for codelist C163027", "type": "Root Value Domain"}, "self": {"href": "/mdr/ct/packages/sdtmct-2020-11-06/codelists/C163027", "title": "CDISC SDTM Type 1 Diabetes Findings About Test Code Terminology", "type": "Code List"}}, "conceptId": "C163027", "definition": "Terminology relevant to the test codes that describe findings about Type 1 Diabetes event or intervention.", "extensible": "true", "name": "Type 1 Diabetes Findings About Test Code", "preferredTerm": "CDISC SDTM Type 1 Diabetes Findings About Test Code Terminology", "submissionValue": "D1FATSCD", "synonyms": ["Type 1 Diabetes Findings About Test Code"], "terms": [{"conceptId": "C117037", "definition": "Action taken with respect to a device in a study, which may or may not be the device under study.", "preferredTerm": "Action Taken with Device", "submissionValue": "ACNDEV", "synonyms": ["Action Taken With Device"]}, {"conceptId": "C163412", "definition": "Action taken with respect to a subject in a study.", "preferredTerm": "Action Taken With Subject", "submissionValue": "ACNSBJ", "synonyms": ["Action Taken With Subject"]}, {"conceptId": "C172476", "definition": "A measurement of the number of calories expended.", "preferredTerm": "Calories Burned", "submissionValue": "CALBURN", "synonyms": ["Calories Burned"]}, {"conceptId": "C94596", "definition": "The total amount that a subject is exposed to over time.", "preferredTerm": "Cumulative Exposure", "submissionValue": "CUMEXP", "synonyms": ["Cumulative Exposure"]}, {"conceptId": "C172463", "definition": "A determination of the total added sugars in a nutritional product or meal, or a portion thereof.", "preferredTerm": "Dietary Added Sugar Measurement", "submissionValue": "DADDSUG", "synonyms": ["Dietary Added Sugar"]}, {"conceptId": "C172464", "definition": "A determination of the total dietary calories in a nutritional product or meal, or a portion thereof.", "preferredTerm": "Dietary Calories Measurement", "submissionValue": "DCAL", "synonyms": ["Dietary Calories"]}, {"conceptId": "C172461", "definition": "A determination of the total carbohydrate in a nutritional product or meal, or a portion thereof.", "preferredTerm": "Total Dietary Carbohydrate Measurement", "submissionValue": "DCARBT", "synonyms": ["Dietary Total Carbohydrate"]}, {"conceptId": "C172471", "definition": "A determination of the total monounsaturated fat in a nutritional product or meal, or a portion thereof.", "preferredTerm": "Dietary Monounsaturated Fat Measurement", "submissionValue": "DFATM", "synonyms": ["Dietary Fat, Monounsaturated"]}, {"conceptId": "C172472", "definition": "A determination of the total polyunsaturated fat in a nutritional product or meal, or a portion thereof.", "preferredTerm": "Dietary Polyunsaturated Fat Measurement", "submissionValue": "DFATP", "synonyms": ["Dietary Fat, Polyunsaturated"]}, {"conceptId": "C172470", "definition": "A determination of the total saturated fat in a nutritional product or meal, or a portion thereof.", "preferredTerm": "Dietary Saturated Fat Measurement", "submissionValue": "DFATS", "synonyms": ["Dietary Fat, Saturated"]}, {"conceptId": "C172460", "definition": "A determination of the total fat in a nutritional product or meal, or a portion thereof.", "preferredTerm": "Total Dietary Fat Measurement", "submissionValue": "DFATT", "synonyms": ["Dietary Fat, Total"]}, {"conceptId": "C172469", "definition": "A determination of the total fiber in a nutritional product or meal, or a portion thereof.", "preferredTerm": "Dietary Fiber Measurement", "submissionValue": "DFIBER", "synonyms": ["Dietary Fiber"]}, {"conceptId": "C172465", "definition": "A determination of the total fruit in a nutritional product or meal, or a portion thereof.", "preferredTerm": "Dietary Fruit Measurement", "submissionValue": "DFRUIT", "synonyms": ["Dietary Fruit"]}, {"conceptId": "C172467", "definition": "A determination of the total grain in a nutritional product or meal, or a portion thereof.", "preferredTerm": "Dietary Grain Measurement", "submissionValue": "DGRAIN", "synonyms": ["Dietary Grain"]}, {"conceptId": "C25167", "definition": "The actual or calculated span between two points (real or virtual).", "preferredTerm": "Distance", "submissionValue": "DISTANCE", "synonyms": ["Distance"]}, {"conceptId": "C172468", "definition": "A determination of the total meat in a nutritional product or meal, or a portion thereof.", "preferredTerm": "Dietary Meat Measurement", "submissionValue": "DMEAT", "synonyms": ["Dietary Meat"]}, {"conceptId": "C172462", "definition": "A determination of the total magnesium in a nutritional product or meal, or a portion thereof.", "preferredTerm": "Dietary Magnesium Measurement", "submissionValue": "DMG", "synonyms": ["Dietary Magnesium"]}, {"conceptId": "C172459", "definition": "A determination of the total protein in a nutritional product or meal, or a portion thereof.", "preferredTerm": "Dietary Protein Measurement", "submissionValue": "DPROT", "synonyms": ["Dietary Protein"]}, {"conceptId": "C172466", "definition": "A determination of the total vegetables in a nutritional product or meal, or a portion thereof.", "preferredTerm": "Dietary Vegetable Measurement", "submissionValue": "DVEG", "synonyms": ["Dietary Vegetable"]}, {"conceptId": "C124281", "definition": "The total number of episodes that have occurred for the condition.", "preferredTerm": "Number of Episodes", "submissionValue": "EPSDNUM", "synonyms": ["Number of Episodes"]}, {"conceptId": "C174282", "definition": "An approximate determination of the weight of the entity.", "preferredTerm": "Estimated Weight", "submissionValue": "ESTWT", "synonyms": ["Estimated Entity Weight", "Estimated Weight"]}, {"conceptId": "C172475", "definition": "The length of time an individual spends exercising.", "preferredTerm": "Exercise Duration", "submissionValue": "EXCDUR", "synonyms": ["Exercise Duration"]}, {"conceptId": "C172473", "definition": "A determination or assessment of the degree or magnitude of an individual's exertion during physical activity.", "preferredTerm": "Exercise Intensity", "submissionValue": "EXCINTSY", "synonyms": ["Exercise Intensity"]}, {"conceptId": "C172474", "definition": "A determination or assessment of the extent to which an individual adheres to a fitness program.", "preferredTerm": "Exercise Compliance", "submissionValue": "EXCMPLNC", "synonyms": ["Exercise Compliance"]}, {"conceptId": "C172478", "definition": "The number of laps completed around a course or circuit.", "preferredTerm": "Number of Laps Completed", "submissionValue": "LAPCOMPN", "synonyms": ["Number of Laps Completed"]}, {"conceptId": "C163413", "definition": "The factor that causes or triggers the onset of an occurrence.", "preferredTerm": "Precipitating Factor", "submissionValue": "PPTFCT", "synonyms": ["Precipitating Factor"]}, {"conceptId": "C163414", "definition": "The relationship of an event to a device, which may or may not be a device under study.", "preferredTerm": "Relationship to Device", "submissionValue": "RLDEV", "synonyms": ["Relationship to Device"]}, {"conceptId": "C174283", "definition": "The total number of portion(s) of food or drink served.", "preferredTerm": "Number of Servings", "submissionValue": "SERVNUM", "synonyms": ["Number of Servings"]}, {"conceptId": "C41146", "definition": "A scalar measure of the rate of movement of the object expressed as the distance traveled divided by the elapsed time.", "preferredTerm": "Speed", "submissionValue": "SPEED", "synonyms": ["Speed"]}, {"conceptId": "C172479", "definition": "The number of footsteps taken by an individual.", "preferredTerm": "Number of Steps Taken", "submissionValue": "STEPSTN", "synonyms": ["Number of Steps Taken"]}, {"conceptId": "C172477", "definition": "The total amount of time during which an event, operation or activity has been interrupted or stopped.", "preferredTerm": "Total Time Paused", "submissionValue": "TTIMPAUS", "synonyms": ["Total Time Paused"]}, {"conceptId": "C172480", "definition": "The total amount of time during which an individual was actively engaged in physical activity.", "preferredTerm": "Total Time Physically Active", "submissionValue": "TTIMPHAC", "synonyms": ["Total Time Physically Active"]}]}