{"_links": {"parentPackage": {"href": "/mdr/ct/packages/sdtmct-2020-11-06", "title": "SDTM Controlled Terminology Package 43 Effective 2020-11-06", "type": "Terminology"}, "priorVersion": {"href": "/mdr/ct/packages/sdtmct-2020-06-26/codelists/C170446", "title": "CDISC SDTM Psoriasis Findings About Test Name Terminology", "type": "Code List"}, "rootItem": {"href": "/mdr/root/ct/sdtmct/codelists/C170446", "title": "Version-agnostic anchor resource for codelist C170446", "type": "Root Value Domain"}, "self": {"href": "/mdr/ct/packages/sdtmct-2020-11-06/codelists/C170446", "title": "CDISC SDTM Psoriasis Findings About Test Name Terminology", "type": "Code List"}}, "conceptId": "C170446", "definition": "Terminology relevant to the test names that describe findings about a psoriasis event or intervention.", "extensible": "true", "name": "Psoriasis Findings About Test Name", "preferredTerm": "CDISC SDTM Psoriasis Findings About Test Name Terminology", "submissionValue": "PSFATS", "synonyms": ["Psoriasis Findings About Test Name"], "terms": [{"conceptId": "C170617", "definition": "The effect or consequence of an event or condition on an individual's sense of well-being and ability to enjoy life.", "preferredTerm": "Quality of Life Impact", "submissionValue": "QOL Impact", "synonyms": ["QOL Impact", "Quality of Life Impact"]}, {"conceptId": "C25676", "definition": "The degree of something undesirable.", "preferredTerm": "Severity", "submissionValue": "Severity/Intensity", "synonyms": ["Severity/Intensity"]}]}