{"_links": {"parentPackage": {"href": "/mdr/ct/packages/sdtmct-2020-11-06", "title": "SDTM Controlled Terminology Package 43 Effective 2020-11-06", "type": "Terminology"}, "rootItem": {"href": "/mdr/root/ct/sdtmct/codelists/C174224", "title": "Version-agnostic anchor resource for codelist C174224", "type": "Root Value Domain"}, "self": {"href": "/mdr/ct/packages/sdtmct-2020-11-06/codelists/C174224", "title": "CDISC SDTM Crohn's Disease Findings About Test Name Terminology", "type": "Code List"}}, "conceptId": "C174224", "definition": "Terminology relevant to the test names that describe findings about Crohn's Disease event or intervention.", "extensible": "true", "name": "Crohn's Disease Findings About Test Name", "preferredTerm": "CDISC SDTM Crohn's Disease Findings About Test Name Terminology", "submissionValue": "CRFATS", "synonyms": ["Crohn's Disease Findings About Test Name"], "terms": [{"conceptId": "C174273", "definition": "The age at which illness-specific symptoms first began.", "preferredTerm": "Age Symptom Started", "submissionValue": "Age Symptoms Started", "synonyms": ["Age Symptoms Started"]}, {"conceptId": "C157443", "definition": "A description of the relative amount of tissue, blood vessel, or organ that has been removed.", "preferredTerm": "Extent of Resection", "submissionValue": "Extent of Resection", "synonyms": ["Extent of Resection"]}, {"conceptId": "C174279", "definition": "An indication as to whether the ileocecal junction was removed.", "preferredTerm": "Ileocecal Junction Removed Indicator", "submissionValue": "Ileocecal Junction Removed Indicator", "synonyms": ["Ileocecal Junction Removed Indicator"]}, {"conceptId": "C174278", "definition": "A measurement of the total length of the removed tissue, blood vessel, or organ.", "preferredTerm": "Length of Resection", "submissionValue": "Length of Resection", "synonyms": ["Length of Resection"]}, {"conceptId": "C174280", "definition": "The number of devices inserted into an individual.", "preferredTerm": "Number of Devices Inserted", "submissionValue": "Number of Devices Inserted", "synonyms": ["Number of Devices Inserted"]}, {"conceptId": "C174277", "definition": "The number of lesions observed.", "preferredTerm": "Number of Lesions", "submissionValue": "Number of Lesions", "synonyms": ["Number of Lesions"]}, {"conceptId": "C174275", "definition": "The number of objects observed.", "preferredTerm": "Number of Objects", "submissionValue": "Number of Objects", "synonyms": ["Number of Objects"]}, {"conceptId": "C174228", "definition": "The number of procedures performed on or in an individual.", "preferredTerm": "Number of Procedures Performed", "submissionValue": "Number of Procedures Performed", "synonyms": ["Number of Procedures Performed"]}, {"conceptId": "C174274", "definition": "The number of anatomical strictures observed.", "preferredTerm": "Number of Strictures", "submissionValue": "Number of Strictures", "synonyms": ["Number of Stricture"]}, {"conceptId": "C174281", "definition": "The signs and/or symptoms that result in the discontinuation of treatment or intervention.", "preferredTerm": "Sign or Symptom Leading to Discontinuation", "submissionValue": "Sign/Symptom Leading to Discontinuation", "synonyms": ["Sign/Symptom Leading to Discontinuation"]}, {"conceptId": "C174276", "definition": "The type of object observed.", "preferredTerm": "Type of Object", "submissionValue": "Type of Object", "synonyms": ["Type of Object"]}]}