{"_links": {"parentPackage": {"href": "/mdr/ct/packages/sdtmct-2020-12-18", "title": "SDTM Controlled Terminology Package 44 Effective 2020-12-18", "type": "Terminology"}, "priorVersion": {"href": "/mdr/ct/packages/sdtmct-2020-11-06/codelists/C100169", "title": "CDISC Clinical Classification KPS Scale Test Name Terminology", "type": "Code List"}, "rootItem": {"href": "/mdr/root/ct/sdtmct/codelists/C100169", "title": "Version-agnostic anchor resource for codelist C100169", "type": "Root Value Domain"}, "self": {"href": "/mdr/ct/packages/sdtmct-2020-12-18/codelists/C100169", "title": "CDISC Clinical Classification KPS Scale Test Name Terminology", "type": "Code List"}}, "conceptId": "C100169", "definition": "Karnofsky Performance Status Scale test name.", "extensible": "false", "name": "Karnofsky Performance Status Scale Clinical Classification Test Name", "preferredTerm": "CDISC Clinical Classification KPS Scale Test Name Terminology", "submissionValue": "KPSS01TN", "synonyms": ["Karnofsky Performance Status Scale Clinical Classification Test Name"], "terms": [{"conceptId": "C100417", "definition": "Karnofsky Performance Status Scale - Karnofsky Performance Status.", "preferredTerm": "KPS Scale - Karnofsky Performance Status", "submissionValue": "KPSS01-Karnofsky Performance Status", "synonyms": ["KPSS01-Karnofsky Performance Status"]}]}