{"_links": {"parentPackage": {"href": "/mdr/ct/packages/sdtmct-2020-12-18", "title": "SDTM Controlled Terminology Package 44 Effective 2020-12-18", "type": "Terminology"}, "priorVersion": {"href": "/mdr/ct/packages/sdtmct-2020-11-06/codelists/C100155", "title": "CDISC Questionnaire Short-Form MPQ-2 Test Name Terminology", "type": "Code List"}, "rootItem": {"href": "/mdr/root/ct/sdtmct/codelists/C100155", "title": "Version-agnostic anchor resource for codelist C100155", "type": "Root Value Domain"}, "self": {"href": "/mdr/ct/packages/sdtmct-2020-12-18/codelists/C100155", "title": "CDISC Questionnaire Short-Form MPQ-2 Test Name Terminology", "type": "Code List"}}, "conceptId": "C100155", "definition": "Short-Form McGill Pain Questionnaire-2 test name.", "extensible": "false", "name": "Short-Form McGill Pain Questionnaire-2 Questionnaire Test Name", "preferredTerm": "CDISC Questionnaire Short-Form MPQ-2 Test Name Terminology", "submissionValue": "SFMP2TN", "synonyms": ["Short-Form McGill Pain Questionnaire-2 Questionnaire Test Name"], "terms": [{"conceptId": "C100856", "definition": "Short-Form McGill Pain Questionnaire-2 - Aching pain.", "preferredTerm": "SF-MPQ-2 - Aching Pain", "submissionValue": "SFMP2-Aching Pain", "synonyms": ["SFMP2-Aching Pain"]}, {"conceptId": "C100865", "definition": "Short-Form McGill Pain Questionnaire-2 - Cold-freezing pain.", "preferredTerm": "SF-MPQ-2 - Cold-Freezing Pain", "submissionValue": "SFMP2-Cold-Freezing Pain", "synonyms": ["SFMP2-Cold-Freezing Pain"]}, {"conceptId": "C100853", "definition": "Short-Form McGill Pain Questionnaire-2 - Cramping pain.", "preferredTerm": "SF-MPQ-2 - Cramping Pain", "submissionValue": "SFMP2-Cramping Pain", "synonyms": ["SFMP2-Cramping Pain"]}, {"conceptId": "C100864", "definition": "Short-Form McGill Pain Questionnaire-2 - Electric-shock pain.", "preferredTerm": "SF-MPQ-2 - Electric-Shock Pain", "submissionValue": "SFMP2-Electric-Shock Pain", "synonyms": ["SFMP2-Electric-Shock Pain"]}, {"conceptId": "C100862", "definition": "Short-Form McGill Pain Questionnaire-2 - Fearful.", "preferredTerm": "SF-MPQ-2 - Fearful", "submissionValue": "SFMP2-Fearful", "synonyms": ["SFMP2-Fearful"]}, {"conceptId": "C100854", "definition": "Short-Form McGill Pain Questionnaire-2 - Gnawing pain.", "preferredTerm": "SF-MPQ-2 - Gnawing Pain", "submissionValue": "SFMP2-Gnawing Pain", "synonyms": ["SFMP2-Gnawing Pain"]}, {"conceptId": "C100857", "definition": "Short-Form McGill Pain Questionnaire-2 - Heavy pain.", "preferredTerm": "SF-MPQ-2 - Heavy Pain", "submissionValue": "SFMP2-Heavy Pain", "synonyms": ["SFMP2-Heavy Pain"]}, {"conceptId": "C100855", "definition": "Short-Form McGill Pain Questionnaire-2 - Hot-burning pain.", "preferredTerm": "SF-MPQ-2 - Hot-burning Pain", "submissionValue": "SFMP2-Hot-burning Pain", "synonyms": ["SFMP2-Hot-burning Pain"]}, {"conceptId": "C100868", "definition": "Short-Form McGill Pain Questionnaire-2 - Itching.", "preferredTerm": "SF-MPQ-2 - Itching", "submissionValue": "SFMP2-Itching", "synonyms": ["SFMP2-Itching"]}, {"conceptId": "C100869", "definition": "Short-Form McGill Pain Questionnaire-2 - Numbness.", "preferredTerm": "SF-MPQ-2 - Numbness", "submissionValue": "SFMP2-Numbness", "synonyms": ["SFMP2-Numbness"]}, {"conceptId": "C100867", "definition": "Short-Form McGill Pain Questionnaire-2 - Pain caused by light touch.", "preferredTerm": "SF-MPQ-2 - Pain Caused by Light Touch", "submissionValue": "SFMP2-Pain Caused by Light Touch", "synonyms": ["SFMP2-Pain Caused by Light Touch"]}, {"conceptId": "C100866", "definition": "Short-Form McGill Pain Questionnaire-2 - Piercing.", "preferredTerm": "SF-MPQ-2 - Piercing", "submissionValue": "SFMP2-Piercing", "synonyms": ["SFMP2-Piercing"]}, {"conceptId": "C100863", "definition": "Short-Form McGill Pain Questionnaire-2 - Punishing-cruel.", "preferredTerm": "SF-MPQ-2 - Punishing-Cruel", "submissionValue": "SFMP2-Punishing-Cruel", "synonyms": ["SFMP2-Punishing-Cruel"]}, {"conceptId": "C100852", "definition": "Short-Form McGill Pain Questionnaire-2 - Sharp pain.", "preferredTerm": "SF-MPQ-2 - Sharp Pain", "submissionValue": "SFMP2-Sharp Pain", "synonyms": ["SFMP2-Sharp Pain"]}, {"conceptId": "C100850", "definition": "Short-Form McGill Pain Questionnaire-2 - Shooting pain.", "preferredTerm": "SF-MPQ-2 - Shooting Pain", "submissionValue": "SFMP2-Shooting Pain", "synonyms": ["SFMP2-Shooting Pain"]}, {"conceptId": "C100861", "definition": "Short-Form McGill Pain Questionnaire-2 - Sickening.", "preferredTerm": "SF-MPQ-2 - Sickening", "submissionValue": "SFMP2-Sickening", "synonyms": ["SFMP2-Sickening"]}, {"conceptId": "C100859", "definition": "Short-Form McGill Pain Questionnaire-2 - Splitting pain.", "preferredTerm": "SF-MPQ-2 - Splitting Pain", "submissionValue": "SFMP2-Splitting Pain", "synonyms": ["SFMP2-Splitting Pain"]}, {"conceptId": "C100851", "definition": "Short-Form McGill Pain Questionnaire-2 - Stabbing pain.", "preferredTerm": "SF-MPQ-2 - Stabbing Pain", "submissionValue": "SFMP2-Stabbing Pain", "synonyms": ["SFMP2-Stabbing Pain"]}, {"conceptId": "C100858", "definition": "Short-Form McGill Pain Questionnaire-2 - Tender.", "preferredTerm": "SF-MPQ-2 - Tender", "submissionValue": "SFMP2-Tender", "synonyms": ["SFMP2-Tender"]}, {"conceptId": "C100849", "definition": "Short-Form McGill Pain Questionnaire-2 - Throbbing pain.", "preferredTerm": "SF-MPQ-2 - Throbbing Pain", "submissionValue": "SFMP2-Throbbing Pain", "synonyms": ["SFMP2-Throbbing Pain"]}, {"conceptId": "C101021", "definition": "Short-Form McGill Pain Questionnaire-2 - Tingling or 'pins and needles'.", "preferredTerm": "SF-MPQ-2 - Tingling or 'Pins and Needles'", "submissionValue": "SFMP2-Tingling or 'Pins and Needles'", "synonyms": ["SFMP2-Tingling or 'Pins and Needles'"]}, {"conceptId": "C100860", "definition": "Short-Form McGill Pain Questionnaire-2 - Tiring-exhausting.", "preferredTerm": "SF-MPQ-2 - Tiring-Exhausting", "submissionValue": "SFMP2-Tiring-Exhausting", "synonyms": ["SFMP2-Tiring-Exhausting"]}]}