{"_links": {"parentPackage": {"href": "/mdr/ct/packages/sdtmct-2020-12-18", "title": "SDTM Controlled Terminology Package 44 Effective 2020-12-18", "type": "Terminology"}, "priorVersion": {"href": "/mdr/ct/packages/sdtmct-2020-11-06/codelists/C102577", "title": "CDISC SDTM Drug Resistance Status Terminology", "type": "Code List"}, "rootItem": {"href": "/mdr/root/ct/sdtmct/codelists/C102577", "title": "Version-agnostic anchor resource for codelist C102577", "type": "Root Value Domain"}, "self": {"href": "/mdr/ct/packages/sdtmct-2020-12-18/codelists/C102577", "title": "CDISC SDTM Drug Resistance Status Terminology", "type": "Code List"}}, "conceptId": "C102577", "definition": "Terminology relevant to the state or condition of the microbe or lesion to indicate whether it is resistant to drugs normally used in treatment.", "extensible": "true", "name": "Drug Resistance Status", "preferredTerm": "CDISC SDTM Drug Resistance Status Terminology", "submissionValue": "DRSTAT", "synonyms": ["Drug Resistance Status"], "terms": [{"conceptId": "C102633", "definition": "Resistance to nearly all known drugs, particularly the most efficacious or non-first line drugs, used in the treatment of a particular disease.", "preferredTerm": "Extensively Drug Resistance Process", "submissionValue": "EXTENSIVE DRUG RESISTANCE", "synonyms": ["XDR"]}, {"conceptId": "C17745", "definition": "Simultaneous resistance to a spectrum of unrelated drugs following exposure to a single agent. Mechanisms involve expression of multidrug efflux pumps (p-glycoprotein), altered glutathione metabolism, decreased topoisomerase II activity, and changes in various cellular proteins.", "preferredTerm": "Multidrug Resistance Process", "submissionValue": "MULTIPLE DRUG RESISTANCE", "synonyms": ["MDR"]}, {"conceptId": "C85563", "definition": "The growth of microorganisms are inhibited by the usually achievable concentrations of antimicrobial agent when the recommended dosage is used for the site of infection.", "preferredTerm": "Antimicrobial Susceptibility Result", "submissionValue": "SUSCEPTIBLE", "synonyms": ["Susceptible"]}]}