{"_links": {"parentPackage": {"href": "/mdr/ct/packages/sdtmct-2020-12-18", "title": "SDTM Controlled Terminology Package 44 Effective 2020-12-18", "type": "Terminology"}, "priorVersion": {"href": "/mdr/ct/packages/sdtmct-2020-11-06/codelists/C111341", "title": "CDISC Questionnaire C-SSRS Screening Test Name Terminology", "type": "Code List"}, "rootItem": {"href": "/mdr/root/ct/sdtmct/codelists/C111341", "title": "Version-agnostic anchor resource for codelist C111341", "type": "Root Value Domain"}, "self": {"href": "/mdr/ct/packages/sdtmct-2020-12-18/codelists/C111341", "title": "CDISC Questionnaire C-SSRS Screening Test Name Terminology", "type": "Code List"}}, "conceptId": "C111341", "definition": "Columbia-Suicide Severity Rating Scale Screening test name.", "extensible": "false", "name": "Columbia-Suicide Severity Rating Scale Screening Questionnaire Test Name", "preferredTerm": "CDISC Questionnaire C-SSRS Screening Test Name Terminology", "submissionValue": "CSS09TN", "synonyms": ["Columbia-Suicide Severity Rating Scale Screening Questionnaire Test Name"], "terms": [{"conceptId": "C111484", "definition": "Columbia-Suicide Severity Rating Scale Screening - Has there been a time when you started to do something to try to end your life but you stopped yourself before you actually did anything?", "preferredTerm": "C-SSRS Screening - Aborted Suicide Attempt", "submissionValue": "CSS09-Aborted Attempt", "synonyms": ["CSS09-Aborted Attempt"]}, {"conceptId": "C111486", "definition": "Columbia-Suicide Severity Rating Scale Screening - Description of aborted attempt.", "preferredTerm": "C-SSRS Screening - Description of Aborted Suicide Attempt", "submissionValue": "CSS09-Aborted Attempt, Describe", "synonyms": ["CSS09-Aborted Attempt, Describe"]}, {"conceptId": "C111477", "definition": "Columbia-Suicide Severity Rating Scale Screening - Have you made a suicide attempt? Have you done anything to harm yourself? Have you done anything dangerous where you could have died?", "preferredTerm": "C-SSRS Screening - Actual Suicide Attempt", "submissionValue": "CSS09-Actual Attempt", "synonyms": ["CSS09-Actual Attempt"]}, {"conceptId": "C111479", "definition": "Columbia-Suicide Severity Rating Scale Screening - Description of actual attempt.", "preferredTerm": "C-SSRS Screening - Description of Actual Suicide Attempt", "submissionValue": "CSS09-Actual Attempt, Describe", "synonyms": ["CSS09-Actual Attempt, Describe"]}, {"conceptId": "C111497", "definition": "Columbia-Suicide Severity Rating Scale Screening - Initial/first attempt actual lethality/medical damage.", "preferredTerm": "C-SSRS Screening - First Suicide Attempt Actual Lethality/Medical Damage", "submissionValue": "CSS09-First Attempt Damage", "synonyms": ["CSS09-First Attempt Damage"]}, {"conceptId": "C111496", "definition": "Columbia-Suicide Severity Rating Scale Screening - Initial/first attempt date.", "preferredTerm": "C-SSRS Screening - First Suicide Attempt Date", "submissionValue": "CSS09-First Attempt Date", "synonyms": ["CSS09-First Attempt Date"]}, {"conceptId": "C111498", "definition": "Columbia-Suicide Severity Rating Scale Screening - Initial/first attempt potential lethality.", "preferredTerm": "C-SSRS Screening - First Suicide Attempt Potential Lethality", "submissionValue": "CSS09-First Attempt Potential", "synonyms": ["CSS09-First Attempt Potential"]}, {"conceptId": "C111466", "definition": "Columbia-Suicide Severity Rating Scale Screening - Have you had these thoughts and had some intention of acting on them?", "preferredTerm": "C-SSRS Screening - Active Suicidal Ideation with Some Intent to Act, without Specific Plan", "submissionValue": "CSS09-Idea, Intent, No Plan", "synonyms": ["CSS09-Idea, Intent, No Plan"]}, {"conceptId": "C111467", "definition": "Columbia-Suicide Severity Rating Scale Screening - Description of active suicidal ideation with some intent to act, without specific plan.", "preferredTerm": "C-SSRS Screening - Description of Active Suicidal Ideation with Some Intent to Act, without Specific Plan", "submissionValue": "CSS09-Idea, Intent, No Plan, Describe", "synonyms": ["CSS09-Idea, Intent, No Plan, Describe"]}, {"conceptId": "C111464", "definition": "Columbia-Suicide Severity Rating Scale Screening - Have you been thinking about how you might do this?", "preferredTerm": "C-SSRS Screening - Active Suicidal Ideation with Any Methods (Not Plan) without Intent to Act", "submissionValue": "CSS09-Idea, No Intent, No Plan", "synonyms": ["CSS09-Idea, No Intent, No Plan"]}, {"conceptId": "C111465", "definition": "Columbia-Suicide Severity Rating Scale Screening - Description of active suicidal ideation with any methods (not plan) without intent to act.", "preferredTerm": "C-SSRS Screening - Description of Active Suicidal Ideation with Any Methods (Not Plan) without Intent to Act", "submissionValue": "CSS09-Idea, No Intent, No Plan, Describe", "synonyms": ["CSS09-Idea, No Intent, No Plan, Describe"]}, {"conceptId": "C111468", "definition": "Columbia-Suicide Severity Rating Scale Screening - Have you started to work out or worked out the details of how to kill yourself? Do you intend to carry out this plan?", "preferredTerm": "C-SSRS Screening - Active Suicidal Ideation with Specific Plan and Intent", "submissionValue": "CSS09-Idea, Plan, Intent", "synonyms": ["CSS09-Idea, Plan, Intent"]}, {"conceptId": "C111469", "definition": "Columbia-Suicide Severity Rating Scale Screening - Description of active suicidal ideation with specific plan and intent.", "preferredTerm": "C-SSRS Screening - Description of Active Suicidal Ideation with Specific Plan and Intent", "submissionValue": "CSS09-Idea, Plan, Intent, Describe", "synonyms": ["CSS09-Idea, Plan, Intent, Describe"]}, {"conceptId": "C111481", "definition": "Columbia-Suicide Severity Rating Scale Screening - Has there been a time when you started to do something to end your life but someone or something stopped you before you actually did anything?", "preferredTerm": "C-SSRS Screening - Interrupted Suicide Attempt", "submissionValue": "CSS09-Interrupted Attempt", "synonyms": ["CSS09-Interrupted Attempt"]}, {"conceptId": "C111483", "definition": "Columbia-Suicide Severity Rating Scale Screening - Description of interrupted attempt.", "preferredTerm": "C-SSRS Screening - Description of Interrupted Suicide Attempt", "submissionValue": "CSS09-Interrupted Attempt, Describe", "synonyms": ["CSS09-Interrupted Attempt, Describe"]}, {"conceptId": "C111494", "definition": "Columbia-Suicide Severity Rating Scale Screening - Most lethal attempt actual lethality/medical damage.", "preferredTerm": "C-SSRS Screening - Most Lethal Suicide Attempt Actual Lethality/Medical Damage", "submissionValue": "CSS09-Most Lethal Attempt Damage", "synonyms": ["CSS09-Most Lethal Attempt Damage"]}, {"conceptId": "C111493", "definition": "Columbia-Suicide Severity Rating Scale Screening - Most lethal attempt date.", "preferredTerm": "C-SSRS Screening - Most Lethal Suicide Attempt Date", "submissionValue": "CSS09-Most Lethal Attempt Date", "synonyms": ["CSS09-Most Lethal Attempt Date"]}, {"conceptId": "C111495", "definition": "Columbia-Suicide Severity Rating Scale Screening - Most lethal attempt potential lethality.", "preferredTerm": "C-SSRS Screening - Most Lethal Suicide Attempt Potential Lethality", "submissionValue": "CSS09-Most Lethal Attempt Potential", "synonyms": ["CSS09-Most Lethal Attempt Potential"]}, {"conceptId": "C111491", "definition": "Columbia-Suicide Severity Rating Scale Screening - Most recent attempt actual lethality/medical damage.", "preferredTerm": "C-SSRS Screening - Most Recent Suicide Attempt Actual Lethality/Medical Damage", "submissionValue": "CSS09-Most Recent Attempt Damage", "synonyms": ["CSS09-Most Recent Attempt Damage"]}, {"conceptId": "C111490", "definition": "Columbia-Suicide Severity Rating Scale Screening - Most recent attempt date.", "preferredTerm": "C-SSRS Screening - Most Recent Suicide Attempt Date", "submissionValue": "CSS09-Most Recent Attempt Date", "synonyms": ["CSS09-Most Recent Attempt Date"]}, {"conceptId": "C111492", "definition": "Columbia-Suicide Severity Rating Scale Screening - Most recent attempt potential lethality.", "preferredTerm": "C-SSRS Screening - Most Recent Suicide Attempt Potential Lethality", "submissionValue": "CSS09-Most Recent Attempt Potential", "synonyms": ["CSS09-Most Recent Attempt Potential"]}, {"conceptId": "C111470", "definition": "Columbia-Suicide Severity Rating Scale Screening - Most severe ideation.", "preferredTerm": "C-SSRS Screening - Most Severe Ideation", "submissionValue": "CSS09-Most Severe Idea", "synonyms": ["CSS09-Most Severe Idea"]}, {"conceptId": "C111474", "definition": "Columbia-Suicide Severity Rating Scale Screening - Could/can you stop thinking about killing yourself or wanting to die if you want to?", "preferredTerm": "C-SSRS Screening - Controllability of Most Severe Ideation", "submissionValue": "CSS09-Most Severe Idea, Controllability", "synonyms": ["CSS09-Most Severe Idea, Controllability"]}, {"conceptId": "C111471", "definition": "Columbia-Suicide Severity Rating Scale Screening - Description of most severe ideation.", "preferredTerm": "C-SSRS Screening - Describe Most Severe Ideation", "submissionValue": "CSS09-Most Severe Idea, Desc", "synonyms": ["CSS09-Most Severe Idea, Desc"]}, {"conceptId": "C111475", "definition": "Columbia-Suicide Severity Rating Scale Screening - Are there things-anyone or anything (e.g., family, religion, pain of death) - that stopped you from wanting to die or acting on thoughts of committing suicide?", "preferredTerm": "C-SSRS Screening - Deterrents to Most Severe Ideation", "submissionValue": "CSS09-Most Severe Idea, Deterrents", "synonyms": ["CSS09-Most Severe Idea, Deterrents"]}, {"conceptId": "C111473", "definition": "Columbia-Suicide Severity Rating Scale Screening - When you have the thoughts, how long do they last?", "preferredTerm": "C-SSRS Screening - Duration of Most Severe Ideation", "submissionValue": "CSS09-Most Severe Idea, Duration", "synonyms": ["CSS09-Most Severe Idea, Duration"]}, {"conceptId": "C111472", "definition": "Columbia-Suicide Severity Rating Scale Screening - How many times have you had these thoughts?", "preferredTerm": "C-SSRS Screening - Frequency of Most Severe Ideation", "submissionValue": "CSS09-Most Severe Idea, Frequency", "synonyms": ["CSS09-Most Severe Idea, Frequency"]}, {"conceptId": "C111476", "definition": "Columbia-Suicide Severity Rating Scale Screening - What sort of reasons did you have for thinking about wanting to die or killing yourself? Was it to end the pain or stop the way you were feeling (in other words you couldn't go on living with this pain or how you were feeling) or was it to get attention, revenge or a reaction from others? Or both?", "preferredTerm": "C-SSRS Screening - Reasons for Most Severe Ideation", "submissionValue": "CSS09-Most Severe Idea, Reasons", "synonyms": ["CSS09-Most Severe Idea, Reasons"]}, {"conceptId": "C111462", "definition": "Columbia-Suicide Severity Rating Scale Screening - Have you actually had any thoughts of killing yourself?", "preferredTerm": "C-SSRS Screening - Non-Specific Active Suicidal Thoughts", "submissionValue": "CSS09-Non-Spec Suicid Thought", "synonyms": ["CSS09-Non-Spec Suicid Thought"]}, {"conceptId": "C111463", "definition": "Columbia-Suicide Severity Rating Scale Screening - Description of non-specific active suicidal thoughts.", "preferredTerm": "C-SSRS Screening - Description of Non-Specific Active Suicidal Thoughts", "submissionValue": "CSS09-Non-Spec Suicid Thought, Describe", "synonyms": ["CSS09-Non-Spec Suicid Thought, Describe"]}, {"conceptId": "C111480", "definition": "Columbia-Suicide Severity Rating Scale Screening - Has subject engaged in non-suicidal self-injurious behavior?", "preferredTerm": "C-SSRS Screening - Non-suicidal Self-injurious Behavior", "submissionValue": "CSS09-Non-suicidal Self-injur Behav", "synonyms": ["CSS09-Non-suicidal Self-injur Behav"]}, {"conceptId": "C111485", "definition": "Columbia-Suicide Severity Rating Scale Screening - Total number of aborted attempts.", "preferredTerm": "C-SSRS Screening - Number of Aborted Suicide Attempts", "submissionValue": "CSS09-Number of Aborted Attempts", "synonyms": ["CSS09-Number of Aborted Attempts"]}, {"conceptId": "C111478", "definition": "Columbia-Suicide Severity Rating Scale Screening - Total number of actual attempts.", "preferredTerm": "C-SSRS Screening - Number of Actual Suicide Attempts", "submissionValue": "CSS09-Number of Actual Attempts", "synonyms": ["CSS09-Number of Actual Attempts"]}, {"conceptId": "C111482", "definition": "Columbia-Suicide Severity Rating Scale Screening - Total number of interrupted attempts.", "preferredTerm": "C-SSRS Screening - Number of Interrupted Suicide Attempts", "submissionValue": "CSS09-Number of Interrupt Attempts", "synonyms": ["CSS09-Number of Interrupt Attempts"]}, {"conceptId": "C111487", "definition": "Columbia-Suicide Severity Rating Scale Screening - Have you taken any steps towards making a suicide attempt or preparing to kill yourself (such as collecting pills, getting a gun, giving valuables away or writing a suicide note)?", "preferredTerm": "C-SSRS Screening - Preparatory Acts or Behaviors Toward Suicide Attempt", "submissionValue": "CSS09-Preparatory Acts/Behavior", "synonyms": ["CSS09-Preparatory Acts/Behavior"]}, {"conceptId": "C111488", "definition": "Columbia-Suicide Severity Rating Scale Screening - Description of preparatory acts or behavior.", "preferredTerm": "C-SSRS Screening - Description of Preparatory Acts or Behaviors Toward Suicide Attempt", "submissionValue": "CSS09-Preparatory Acts/Behavior, Descr", "synonyms": ["CSS09-Preparatory Acts/Behavior, Descr"]}, {"conceptId": "C111489", "definition": "Columbia-Suicide Severity Rating Scale Screening - Suicidal behavior was present during the assessment period?", "preferredTerm": "C-SSRS Screening - Suicidal Behavior", "submissionValue": "CSS09-Suicidal Behavior", "synonyms": ["CSS09-Suicidal Behavior"]}, {"conceptId": "C111460", "definition": "Columbia-Suicide Severity Rating Scale Screening - Have you wished you were dead or wished you could go to sleep and not wake up?", "preferredTerm": "C-SSRS Screening - Wish to be Dead", "submissionValue": "CSS09-Wish to be Dead", "synonyms": ["CSS09-Wish to be Dead"]}, {"conceptId": "C111461", "definition": "Columbia-Suicide Severity Rating Scale Screening - Description of wishing to be dead.", "preferredTerm": "C-SSRS Screening - Description of Wish to be Dead", "submissionValue": "CSS09-Wish to be Dead, Describe", "synonyms": ["CSS09-Wish to be Dead, Describe"]}]}