{"_links": {"parentPackage": {"href": "/mdr/ct/packages/sdtmct-2020-12-18", "title": "SDTM Controlled Terminology Package 44 Effective 2020-12-18", "type": "Terminology"}, "priorVersion": {"href": "/mdr/ct/packages/sdtmct-2020-11-06/codelists/C116104", "title": "CDISC SDTM Nervous System Physiology Test Code Terminology", "type": "Code List"}, "rootItem": {"href": "/mdr/root/ct/sdtmct/codelists/C116104", "title": "Version-agnostic anchor resource for codelist C116104", "type": "Root Value Domain"}, "self": {"href": "/mdr/ct/packages/sdtmct-2020-12-18/codelists/C116104", "title": "CDISC SDTM Nervous System Physiology Test Code Terminology", "type": "Code List"}}, "conceptId": "C116104", "definition": "Terminology relevant to the test codes that describe nervous system physiology findings.", "extensible": "true", "name": "Nervous System Findings Test Code", "preferredTerm": "CDISC SDTM Nervous System Physiology Test Code Terminology", "submissionValue": "NVTESTCD", "synonyms": ["Nervous System Findings Test Code"], "terms": [{"conceptId": "C114183", "definition": "A measurement of change in volume of an organ or anatomical feature as determined by a shift in tissue boundary over time.", "preferredTerm": "Boundary Shift Integral", "submissionValue": "BSI", "synonyms": ["Boundary Shift Integral"]}, {"conceptId": "C154865", "definition": "An evaluation of the perfusion of blood through the brain.", "preferredTerm": "Cerebral Blood Flow Assessment", "submissionValue": "CRBBLFLW", "synonyms": ["Brain Perfusion", "Cerebral Blood Flow"]}, {"conceptId": "C158260", "definition": "A measurement of the creatine plus phosphocreatine in a biological specimen.", "preferredTerm": "Creatine and Phosphocreatine Measurement", "submissionValue": "CTNPCTN", "synonyms": ["Creatine+Phosphocreatine"]}, {"conceptId": "C158259", "definition": "A measurement of the free choline plus glycerophosphorylcholine (GCP) plus phosphorylcholine (PCh) in a biological specimen.", "preferredTerm": "Free Choline and Glycerophosphorylcholine and Phosphorylcholine Measurement", "submissionValue": "FCGPCPC", "synonyms": ["Choline, Free + Glycerophosphorylcholine + Phosphorylcholine", "Choline, Free+GPC+PCh"]}, {"conceptId": "C156563", "definition": "A measurement of the glutamate and glutamine in a biological specimen.", "preferredTerm": "Glutamate and Glutamine Measurement", "submissionValue": "GLX", "synonyms": ["Glutamate and Glutamine"]}, {"conceptId": "C158261", "definition": "A measurement of the glycerophosphorylcholine (GPC) plus phosphorylcholine (PC) in a biological specimen.", "preferredTerm": "Glycerophosphorylcholine and Phosphorylcholine Measurement", "submissionValue": "GPCPC", "synonyms": ["GPC+PCh", "Glycerophosphorylcholine + Phosphorylcholine"]}, {"conceptId": "C156562", "definition": "A measurement of the myo-inositol in a biological specimen.", "preferredTerm": "Myo-Inositol Measurement", "submissionValue": "INOSM", "synonyms": ["Myo-Inositol", "mI"]}, {"conceptId": "C117886", "definition": "An assessment of the latency of the N145 or N2 wave of the visual evoked potential assessment waveform.", "preferredTerm": "N145 Latency", "submissionValue": "N145LAT", "synonyms": ["N145 Latency"]}, {"conceptId": "C154868", "definition": "The length of time of N1 sleep.", "preferredTerm": "N1 Sleep Phase Duration", "submissionValue": "N1SLPDUR", "synonyms": ["N1 Sleep Duration", "Stage 1 Sleep Duration"]}, {"conceptId": "C156555", "definition": "A relative measurement (percentage) of the N1 sleep time to total sleep time.", "preferredTerm": "N1 Sleep to Total Sleep Time Ratio Measurement", "submissionValue": "N1SLPTST", "synonyms": ["N1 Sleep/Total Sleep Time"]}, {"conceptId": "C154869", "definition": "The length of time of N2 sleep.", "preferredTerm": "N2 Sleep Phase Duration", "submissionValue": "N2SLPDUR", "synonyms": ["N2 Sleep Duration", "Stage 2 Sleep Duration"]}, {"conceptId": "C156556", "definition": "A relative measurement (percentage) of the N2 sleep time to total sleep time.", "preferredTerm": "N2 Sleep to Total Sleep Time Ratio Measurement", "submissionValue": "N2SLPTST", "synonyms": ["N2 Sleep/Total Sleep Time"]}, {"conceptId": "C154870", "definition": "The length of time of N3 sleep.", "preferredTerm": "N3 Sleep Phase Duration", "submissionValue": "N3SLPDUR", "synonyms": ["N3 Sleep Duration", "Stage 3 Sleep Duration"]}, {"conceptId": "C156557", "definition": "A relative measurement (percentage) of the N3 sleep time to total sleep time.", "preferredTerm": "N3 Sleep to Total Sleep Time Ratio Measurement", "submissionValue": "N3SLPTST", "synonyms": ["N3 Sleep/Total Sleep Time"]}, {"conceptId": "C130185", "definition": "An assessment of the latency of the N75 or N1 wave of the visual evoked potential assessment waveform.", "preferredTerm": "N75 Latency", "submissionValue": "N75LAT", "synonyms": ["N1 Latency", "N75 Latency"]}, {"conceptId": "C156561", "definition": "A measurement of the N-acetyl aspartate in a biological specimen.", "preferredTerm": "N-Acetyl Aspartate Measurement", "submissionValue": "NAA", "synonyms": ["N-Acetyl Aspartate"]}, {"conceptId": "C158258", "definition": "A measurement of the N-acetylaspartate plus N-acetyl-aspartylglutamate in a biological specimen.", "preferredTerm": "N-acetylaspartate and N-acetyl-aspartylglutamate Measurement", "submissionValue": "NAANAAG", "synonyms": ["N-acetylaspartate + N-acetyl-aspartylglutamate", "NAA+NAAG"]}, {"conceptId": "C117887", "definition": "The magnitude, or height, of the P100 wave of the visual evoked potential assessment waveform. This assessment calculates the height from the N75 negative peak to the P100 positive peak.", "preferredTerm": "N75 to P100 Peak to Peak Amplitude", "submissionValue": "P100AMP", "synonyms": ["P100 Amplitude"]}, {"conceptId": "C117888", "definition": "An assessment of the latency of the P100 or P1 wave of the visual evoked potential assessment waveform.", "preferredTerm": "P100 Latency", "submissionValue": "P100LAT", "synonyms": ["P100 Latency"]}, {"conceptId": "C156559", "definition": "The maximum height change between the wave and the equilibrium point of a stimulus-response waveform.", "preferredTerm": "Peak Response Amplitude", "submissionValue": "PEAKRA", "synonyms": ["Peak Response Amplitude"]}, {"conceptId": "C156560", "definition": "A measurement of the time interval between a stimulus and the maximal response.", "preferredTerm": "Peak Response Amplitude Latency", "submissionValue": "PEAKRAL", "synonyms": ["Peak Response Amplitude Latency"]}, {"conceptId": "C154871", "definition": "The total amount of time an individual spends in rapid eye movement (REM) sleep.", "preferredTerm": "Rapid Eye Movement Sleep Phase Duration", "submissionValue": "REMDUR", "synonyms": ["REM Duration"]}, {"conceptId": "C154872", "definition": "The time between the onset of sleep and the onset of the first rapid eye movement (REM) cycle.", "preferredTerm": "Rapid Eye Movement Sleep Phase Latency", "submissionValue": "REMLAT", "synonyms": ["REM Latency"]}, {"conceptId": "C156558", "definition": "A relative measurement (percentage) of the rapid eye movement (REM) sleep time to total sleep time.", "preferredTerm": "REM to Total Sleep Time Ratio Measurement", "submissionValue": "REMTST", "synonyms": ["REM/Total Sleep Time"]}, {"conceptId": "C156553", "definition": "A relative measurement (percentage) of the total sleep time (N1 sleep + N2 sleep + N3 sleep + REM sleep) to the total time spent in bed.", "preferredTerm": "Sleep Efficiency", "submissionValue": "SE", "synonyms": ["Sleep Efficiency"]}, {"conceptId": "C154866", "definition": "The degree to which the skin can conduct electricity.", "preferredTerm": "Skin Conductance", "submissionValue": "SKNCUDNC", "synonyms": ["Skin Conductance"]}, {"conceptId": "C154867", "definition": "The duration of time between when the lights are turned off and when the individual falls asleep.", "preferredTerm": "Sleep Onset Latency", "submissionValue": "SOL", "synonyms": ["Sleep Onset Latency"]}, {"conceptId": "C69310", "definition": "The ratio between the tissue radioactivity concentration at a point in time C(T) and the injected dose of radioactivity per kilogram of the patient's body weight.", "preferredTerm": "Standardized Uptake Value", "submissionValue": "SUV", "synonyms": ["Standard Uptake Value"]}, {"conceptId": "C116141", "definition": "The ratio between the uptake or binding of a radiopharmaceutical agent in an anatomical region of interest and a context-defined reference anatomical region.", "preferredTerm": "Standard Uptake Value Ratio", "submissionValue": "SUVR", "synonyms": ["Standard Uptake Value Ratio"]}, {"conceptId": "C41145", "definition": "The dimension between two surfaces of an object, usually the smallest dimension as opposed to the width or the length.", "preferredTerm": "Thickness", "submissionValue": "THICK", "synonyms": ["Thickness"]}, {"conceptId": "C156552", "definition": "The total amount of sleep time from sleep onset to sleep offset, determined by summing the N1 sleep, N2 sleep, N3 sleep, and REM sleep durations.", "preferredTerm": "Total Sleep Time", "submissionValue": "TST", "synonyms": ["Total Sleep Time"]}, {"conceptId": "C25335", "definition": "The amount of three dimensional space occupied by an object or the capacity of a space or container. (NCI)", "preferredTerm": "Volume", "submissionValue": "VOLUME", "synonyms": ["Volume"]}, {"conceptId": "C156554", "definition": "A measurement of the sum of durations of wakefulness episodes throughout the night, not including the wakefulness before sleep onset.", "preferredTerm": "Wake After Sleep Onset", "submissionValue": "WASO", "synonyms": ["Awake After Sleep Onset", "Wake After Sleep Onset", "Wake Time After Sleep Onset"]}]}