{"_links": {"parentPackage": {"href": "/mdr/ct/packages/sdtmct-2020-12-18", "title": "SDTM Controlled Terminology Package 44 Effective 2020-12-18", "type": "Terminology"}, "priorVersion": {"href": "/mdr/ct/packages/sdtmct-2020-11-06/codelists/C127360", "title": "CDISC Questionnaire PROSQOLI Test Code Terminology", "type": "Code List"}, "rootItem": {"href": "/mdr/root/ct/sdtmct/codelists/C127360", "title": "Version-agnostic anchor resource for codelist C127360", "type": "Root Value Domain"}, "self": {"href": "/mdr/ct/packages/sdtmct-2020-12-18/codelists/C127360", "title": "CDISC Questionnaire PROSQOLI Test Code Terminology", "type": "Code List"}}, "conceptId": "C127360", "definition": "The Prostate Cancer Specific Quality of Life Instrument test code.", "extensible": "false", "name": "The Prostate Cancer Specific Quality of Life Instrument Questionnaire Test Code", "preferredTerm": "CDISC Questionnaire PROSQOLI Test Code Terminology", "submissionValue": "PROS01TC", "synonyms": ["The Prostate Cancer Specific Quality of Life Instrument Questionnaire Test Code"], "terms": [{"conceptId": "C127504", "definition": "Prostate Cancer Specific Quality of Life Instrument - Pain.", "preferredTerm": "PROSQOLI - Pain", "submissionValue": "PROS0101", "synonyms": ["PROS01-Pain"]}, {"conceptId": "C127505", "definition": "Prostate Cancer Specific Quality of Life Instrument - Physical activity.", "preferredTerm": "PROSQOLI - Physical Activity", "submissionValue": "PROS0102", "synonyms": ["PROS01-Physical Activity"]}, {"conceptId": "C127506", "definition": "Prostate Cancer Specific Quality of Life Instrument - Fatigue.", "preferredTerm": "PROSQOLI - Fatigue", "submissionValue": "PROS0103", "synonyms": ["PROS01-Fatigue"]}, {"conceptId": "C127507", "definition": "Prostate Cancer Specific Quality of Life Instrument - Appetite.", "preferredTerm": "PROSQOLI - Appetite", "submissionValue": "PROS0104", "synonyms": ["PROS01-Appetite"]}, {"conceptId": "C127508", "definition": "Prostate Cancer Specific Quality of Life Instrument - Constipation.", "preferredTerm": "PROSQOLI - Constipation", "submissionValue": "PROS0105", "synonyms": ["PROS01-Constipation"]}, {"conceptId": "C127509", "definition": "Prostate Cancer Specific Quality of Life Instrument - Urinary problems.", "preferredTerm": "PROSQOLI - Urinary Problems", "submissionValue": "PROS0106", "synonyms": ["PROS01-Urinary Problems"]}, {"conceptId": "C127510", "definition": "Prostate Cancer Specific Quality of Life Instrument - Enjoying time with friends and family.", "preferredTerm": "PROSQOLI - Enjoying Time with Friends and Family", "submissionValue": "PROS0107", "synonyms": ["PROS01-Enjoying Time Friends/Family"]}, {"conceptId": "C127511", "definition": "Prostate Cancer Specific Quality of Life Instrument - Mood.", "preferredTerm": "PROSQOLI - Mood", "submissionValue": "PROS0108", "synonyms": ["PROS01-Mood"]}, {"conceptId": "C127512", "definition": "Prostate Cancer Specific Quality of Life Instrument - Overall Well-Being (How do you feel?).", "preferredTerm": "PROSQOLI - Overall Well-Being", "submissionValue": "PROS0109", "synonyms": ["PROS01-Overall Well-Being"]}, {"conceptId": "C127513", "definition": "Prostate Cancer Specific Quality of Life Instrument - Present pain intensity: Please circle the appropriate number according to how much pain you felt on average during the past 24 hours.", "preferredTerm": "PROSQOLI - Present Pain Intensity", "submissionValue": "PROS0110", "synonyms": ["PROS01-Present Pain Intensity"]}]}