{"_links": {"parentPackage": {"href": "/mdr/ct/packages/sdtmct-2020-12-18", "title": "SDTM Controlled Terminology Package 44 Effective 2020-12-18", "type": "Terminology"}, "priorVersion": {"href": "/mdr/ct/packages/sdtmct-2020-11-06/codelists/C127354", "title": "CDISC Questionnaire FACT-G Version 4 Test Code Terminology", "type": "Code List"}, "rootItem": {"href": "/mdr/root/ct/sdtmct/codelists/C127354", "title": "Version-agnostic anchor resource for codelist C127354", "type": "Root Value Domain"}, "self": {"href": "/mdr/ct/packages/sdtmct-2020-12-18/codelists/C127354", "title": "CDISC Questionnaire FACT-G Version 4 Test Code Terminology", "type": "Code List"}}, "conceptId": "C127354", "definition": "The Functional Assessment of Cancer Therapy-General Version 4 test code.", "extensible": "false", "name": "The Functional Assessment of Cancer Therapy-General Version 4 Questionnaire Test Code", "preferredTerm": "CDISC Questionnaire FACT-G Version 4 Test Code Terminology", "submissionValue": "FAC001TC", "synonyms": ["The Functional Assessment of Cancer Therapy-General Version 4 Questionnaire Test Code"], "terms": [{"conceptId": "C127421", "definition": "Functional Assessment of Cancer Therapy-General Version 4 - Physical Well-Being: I have a lack of energy.", "preferredTerm": "FACT-G Version 4 - I Have a Lack of Energy", "submissionValue": "FAC00101", "synonyms": ["FAC001-I Have a Lack of Energy"]}, {"conceptId": "C127422", "definition": "Functional Assessment of Cancer Therapy-General Version 4 - Physical Well-Being: I have nausea.", "preferredTerm": "FACT-G Version 4 - I Have Nausea", "submissionValue": "FAC00102", "synonyms": ["FAC001-I Have Nausea"]}, {"conceptId": "C127423", "definition": "Functional Assessment of Cancer Therapy-General Version 4 - Physical Well-Being: Because of my physical condition, I have trouble meeting the needs of my family.", "preferredTerm": "FACT-G Version 4 - Trouble Meeting Needs of Family", "submissionValue": "FAC00103", "synonyms": ["FAC001-Trouble Meeting Needs of Family"]}, {"conceptId": "C127424", "definition": "Functional Assessment of Cancer Therapy-General Version 4 - Physical Well-Being: I have pain.", "preferredTerm": "FACT-G Version 4 - I have pain", "submissionValue": "FAC00104", "synonyms": ["FAC001-I Have Pain"]}, {"conceptId": "C127425", "definition": "Functional Assessment of Cancer Therapy-General Version 4 - Physical Well-Being: I am bothered by side effects of treatment.", "preferredTerm": "FACT-G Version 4 - Bothered by Treatment Side Effect", "submissionValue": "FAC00105", "synonyms": ["FAC001-Bothered by Treatment Side Effect"]}, {"conceptId": "C127426", "definition": "Functional Assessment of Cancer Therapy-General Version 4 - Physical Well-Being: I feel ill.", "preferredTerm": "FACT-G Version 4 - I Feel Ill", "submissionValue": "FAC00106", "synonyms": ["FAC001-I Feel Ill"]}, {"conceptId": "C127427", "definition": "Functional Assessment of Cancer Therapy-General Version 4 - Physical Well-Being: I am forced to spend time in bed.", "preferredTerm": "FACT-G Version 4 - I Am Forced to Spend Time in Bed", "submissionValue": "FAC00107", "synonyms": ["FAC001-I Am Forced to Spend Time in Bed"]}, {"conceptId": "C127428", "definition": "Functional Assessment of Cancer Therapy-General Version 4 - Social/Family Well-Being: I feel close to my friends.", "preferredTerm": "FACT-G Version 4 - I Feel Close to My Friends", "submissionValue": "FAC00108", "synonyms": ["FAC001-I Feel Close to My Friends"]}, {"conceptId": "C127429", "definition": "Functional Assessment of Cancer Therapy-General Version 4 - Social/Family Well-Being: I get emotional support from my family.", "preferredTerm": "FACT-G Version 4 - I Get Emotional Support From My Family", "submissionValue": "FAC00109", "synonyms": ["FAC001-Get Emotional Support From Family"]}, {"conceptId": "C127430", "definition": "Functional Assessment of Cancer Therapy-General Version 4 - Social/Family Well-Being: I get support from my friends.", "preferredTerm": "FACT-G Version 4 - I Get Support From My Friends", "submissionValue": "FAC00110", "synonyms": ["FAC001-I Get Support From My Friends"]}, {"conceptId": "C127431", "definition": "Functional Assessment of Cancer Therapy-General Version 4 - Social/Family Well-Being: My family has accepted my illness.", "preferredTerm": "FACT-G Version 4 - My Family Has Accepted My Illness", "submissionValue": "FAC00111", "synonyms": ["FAC001-My Family Has Accepted My Illness"]}, {"conceptId": "C127432", "definition": "Functional Assessment of Cancer Therapy-General Version 4 - Social/Family Well-Being: I am satisfied with family communication about my illness.", "preferredTerm": "FACT-G Version 4 - Satisfied With Family Communication", "submissionValue": "FAC00112", "synonyms": ["FAC001-Satisfied Communication Illness"]}, {"conceptId": "C127433", "definition": "Functional Assessment of Cancer Therapy-General Version 4 - Social/Family Well-Being: I feel close to my partner (or the person who is my main support).", "preferredTerm": "FACT-G Version 4 - I Feel Close to My Partner", "submissionValue": "FAC00113", "synonyms": ["FAC001-I Feel Close to My Partner"]}, {"conceptId": "C127434", "definition": "Functional Assessment of Cancer Therapy-General Version 4 - Social/Family Well-Being: I am satisfied with my sex life.", "preferredTerm": "FACT-G Version 4 - I Am Satisfied With My Sex Life", "submissionValue": "FAC00114", "synonyms": ["FAC001-I Am Satisfied With My Sex Life"]}, {"conceptId": "C127435", "definition": "Functional Assessment of Cancer Therapy-General Version 4 - Emotional Well-Being: I feel sad.", "preferredTerm": "FACT-G Version 4 - I Feel Sad", "submissionValue": "FAC00115", "synonyms": ["FAC001-I Feel Sad"]}, {"conceptId": "C127436", "definition": "Functional Assessment of Cancer Therapy-General Version 4 - Emotional Well-Being: I am satisfied with how I am coping with my illness.", "preferredTerm": "FACT-G Version 4 - Satisfied With How I Am Coping With Illness", "submissionValue": "FAC00116", "synonyms": ["FAC001-Satisfied With How I Am Coping"]}, {"conceptId": "C127437", "definition": "Functional Assessment of Cancer Therapy-General Version 4 - Emotional Well-Being: I am losing hope in the fight against my illness.", "preferredTerm": "FACT-G Version 4 - Losing Hope Against Illness", "submissionValue": "FAC00117", "synonyms": ["FAC001-Losing Hope Against Illness"]}, {"conceptId": "C127438", "definition": "Functional Assessment of Cancer Therapy-General Version 4 - Emotional Well-Being: I feel nervous.", "preferredTerm": "FACT-G Version 4 - I Feel Nervous", "submissionValue": "FAC00118", "synonyms": ["FAC001-I Feel Nervous"]}, {"conceptId": "C127439", "definition": "Functional Assessment of Cancer Therapy-General Version 4 - Emotional Well-Being: I worry about dying.", "preferredTerm": "FACT-G Version 4 - I Worry About Dying", "submissionValue": "FAC00119", "synonyms": ["FAC001-I Worry About Dying"]}, {"conceptId": "C127440", "definition": "Functional Assessment of Cancer Therapy-General Version 4 - Emotional Well-Being: I worry that my condition will get worse.", "preferredTerm": "FACT-G Version 4 - Worry My Condition Will Get Worse", "submissionValue": "FAC00120", "synonyms": ["FAC001-Worry My Condition Will Get Worse"]}, {"conceptId": "C127441", "definition": "Functional Assessment of Cancer Therapy-General Version 4 - Functional Well-Being: I am able to work (include work at home).", "preferredTerm": "FACT-G Version 4 - I Am Able to Work", "submissionValue": "FAC00121", "synonyms": ["FAC001-I Am Able to Work"]}, {"conceptId": "C127442", "definition": "Functional Assessment of Cancer Therapy-General Version 4 - Functional Well-Being: My work (include work at home) is fulfilling.", "preferredTerm": "FACT-G Version 4 - My Work Is Fulfilling", "submissionValue": "FAC00122", "synonyms": ["FAC001-My Work Is Fulfilling"]}, {"conceptId": "C127443", "definition": "Functional Assessment of Cancer Therapy-General Version 4 - Functional Well-Being: I am able to enjoy life.", "preferredTerm": "FACT-G Version 4 - I Am Able to Enjoy Life", "submissionValue": "FAC00123", "synonyms": ["FAC001-I Am Able to Enjoy Life"]}, {"conceptId": "C127444", "definition": "Functional Assessment of Cancer Therapy-General Version 4 - Functional Well-Being: I have accepted my illness.", "preferredTerm": "FACT-G Version 4 - I Have Accepted My Illness", "submissionValue": "FAC00124", "synonyms": ["FAC001-I Have Accepted My Illness"]}, {"conceptId": "C127445", "definition": "Functional Assessment of Cancer Therapy-General Version 4 - Functional Well-Being: I am sleeping well.", "preferredTerm": "FACT-G Version 4 - I Am Sleeping Well", "submissionValue": "FAC00125", "synonyms": ["FAC001-I Am Sleeping Well"]}, {"conceptId": "C127446", "definition": "Functional Assessment of Cancer Therapy-General Version 4 - Functional Well-Being: I am enjoying the things I usually do for fun.", "preferredTerm": "FACT-G Version 4 - Enjoy Things I Usually Do for Fun", "submissionValue": "FAC00126", "synonyms": ["FAC001-Enjoy Things I Usually Do for Fun"]}, {"conceptId": "C127447", "definition": "Functional Assessment of Cancer Therapy-General Version 4 - Functional Well-Being: I am content with the quality of my life right now.", "preferredTerm": "FACT-G Version 4 - Content With Quality of My Life", "submissionValue": "FAC00127", "synonyms": ["FAC001-Content With Quality of My Life"]}]}