{"_links": {"parentPackage": {"href": "/mdr/ct/packages/sdtmct-2020-12-18", "title": "SDTM Controlled Terminology Package 44 Effective 2020-12-18", "type": "Terminology"}, "priorVersion": {"href": "/mdr/ct/packages/sdtmct-2020-11-06/codelists/C130263", "title": "CDISC Questionnaire QIDS-SR Test Code Terminology", "type": "Code List"}, "rootItem": {"href": "/mdr/root/ct/sdtmct/codelists/C130263", "title": "Version-agnostic anchor resource for codelist C130263", "type": "Root Value Domain"}, "self": {"href": "/mdr/ct/packages/sdtmct-2020-12-18/codelists/C130263", "title": "CDISC Questionnaire QIDS-SR Test Code Terminology", "type": "Code List"}}, "conceptId": "C130263", "definition": "Quick Inventory of Depressive Symptomatology Self-Report Version test code.", "extensible": "false", "name": "Quick Inventory of Depressive Symptomatology Self-Report Version Questionnaire Test Code", "preferredTerm": "CDISC Questionnaire QIDS-SR Test Code Terminology", "submissionValue": "QIDSR1TC", "synonyms": ["Quick Inventory of Depressive Symptomatology Self-Report Version Questionnaire Test Code"], "terms": [{"conceptId": "C130584", "definition": "Quick Inventory of Depressive Symptomatology - Self-Report - Please circle the one response to each item that best describes you for the past seven days: Falling asleep.", "preferredTerm": "QIDS-SR - Falling Asleep", "submissionValue": "QIDSR101", "synonyms": ["QIDSR1-Falling Asleep"]}, {"conceptId": "C130585", "definition": "Quick Inventory of Depressive Symptomatology - Self-Report - Please circle the one response to each item that best describes you for the past seven days: Sleep during the night.", "preferredTerm": "QIDS-SR - Sleep During the Night", "submissionValue": "QIDSR102", "synonyms": ["QIDSR1-Sleep During the Night"]}, {"conceptId": "C130586", "definition": "Quick Inventory of Depressive Symptomatology - Self-Report - Please circle the one response to each item that best describes you for the past seven days: Waking up too early.", "preferredTerm": "QIDS-SR - Waking Up Too Early", "submissionValue": "QIDSR103", "synonyms": ["QIDSR1-Waking Up Too Early"]}, {"conceptId": "C130587", "definition": "Quick Inventory of Depressive Symptomatology - Self-Report - Please circle the one response to each item that best describes you for the past seven days: Sleeping too much.", "preferredTerm": "QIDS-SR - Sleeping Too Much", "submissionValue": "QIDSR104", "synonyms": ["QIDSR1-Sleeping Too Much"]}, {"conceptId": "C130588", "definition": "Quick Inventory of Depressive Symptomatology - Self-Report - Please circle the one response to each item that best describes you for the past seven days: Feeling sad.", "preferredTerm": "QIDS-SR - Feeling Sad", "submissionValue": "QIDSR105", "synonyms": ["QIDSR1-Feeling Sad"]}, {"conceptId": "C130589", "definition": "Quick Inventory of Depressive Symptomatology - Self-Report - Please circle the one response to each item that best describes you for the past seven days: Decreased appetite.", "preferredTerm": "QIDS-SR - Decreased Appetite", "submissionValue": "QIDSR106", "synonyms": ["QIDSR1-Decreased Appetite"]}, {"conceptId": "C130590", "definition": "Quick Inventory of Depressive Symptomatology - Self-Report - Please circle the one response to each item that best describes you for the past seven days: Increased appetite.", "preferredTerm": "QIDS-SR - Increased Appetite", "submissionValue": "QIDSR107", "synonyms": ["QIDSR1-Increased Appetite"]}, {"conceptId": "C130591", "definition": "Quick Inventory of Depressive Symptomatology - Self-Report - Please circle the one response to each item that best describes you for the past seven days: within the last two weeks: Decreased weight.", "preferredTerm": "QIDS-SR - Decreased Weight", "submissionValue": "QIDSR108", "synonyms": ["QIDSR1-Decreased Weight"]}, {"conceptId": "C130592", "definition": "Quick Inventory of Depressive Symptomatology - Self-Report - Please circle the one response to each item that best describes you for the past seven days: within the last two weeks: Increased weight.", "preferredTerm": "QIDS-SR - Increased Weight", "submissionValue": "QIDSR109", "synonyms": ["QIDSR1-Increased Weight"]}, {"conceptId": "C130593", "definition": "Quick Inventory of Depressive Symptomatology - Self-Report - Please circle the one response to each item that best describes you for the past seven days: Concentration/decision making.", "preferredTerm": "QIDS-SR - Concentration or Decision Making", "submissionValue": "QIDSR110", "synonyms": ["QIDSR1-Concentration/Decision Making"]}, {"conceptId": "C130594", "definition": "Quick Inventory of Depressive Symptomatology - Self-Report - Please circle the one response to each item that best describes you for the past seven days: View of myself.", "preferredTerm": "QIDS-SR - View of Myself", "submissionValue": "QIDSR111", "synonyms": ["QIDSR1-View of Myself"]}, {"conceptId": "C130595", "definition": "Quick Inventory of Depressive Symptomatology - Self-Report - Please circle the one response to each item that best describes you for the past seven days: Thoughts of death or suicide.", "preferredTerm": "QIDS-SR - Thoughts of Death or Suicide", "submissionValue": "QIDSR112", "synonyms": ["QIDSR1-Thoughts of Death or Suicide"]}, {"conceptId": "C130596", "definition": "Quick Inventory of Depressive Symptomatology - Self-Report - Please circle the one response to each item that best describes you for the past seven days: General interest.", "preferredTerm": "QIDS-SR - General Interest", "submissionValue": "QIDSR113", "synonyms": ["QIDSR1-General Interest"]}, {"conceptId": "C130597", "definition": "Quick Inventory of Depressive Symptomatology - Self-Report - Please circle the one response to each item that best describes you for the past seven days: Energy level.", "preferredTerm": "QIDS-SR - Energy Level", "submissionValue": "QIDSR114", "synonyms": ["QIDSR1-Energy Level"]}, {"conceptId": "C130598", "definition": "Quick Inventory of Depressive Symptomatology - Self-Report - Please circle the one response to each item that best describes you for the past seven days: Feeling slowed down.", "preferredTerm": "QIDS-SR - Feeling Slowed Down", "submissionValue": "QIDSR115", "synonyms": ["QIDSR1-Feeling Slowed Down"]}, {"conceptId": "C130599", "definition": "Quick Inventory of Depressive Symptomatology - Self-Report - Please circle the one response to each item that best describes you for the past seven days: Feeling restless.", "preferredTerm": "QIDS-SR - Feeling Restless", "submissionValue": "QIDSR116", "synonyms": ["QIDSR1-Feeling Restless"]}, {"conceptId": "C130600", "definition": "Quick Inventory of Depressive Symptomatology - Self-Report - Enter the highest score on any 1 of the 4 sleep items.", "preferredTerm": "QIDS-SR - Highest Score Sleep Items", "submissionValue": "QIDSR117", "synonyms": ["QIDSR1-Highest Score Sleep Items"]}, {"conceptId": "C130601", "definition": "Quick Inventory of Depressive Symptomatology - Self-Report - Enter the highest score on any 1 of the 4 appetite/weight change items.", "preferredTerm": "QIDS-SR - High Score Appetite or Weight Items", "submissionValue": "QIDSR118", "synonyms": ["QIDSR1-High Score Appetite/Weight Items"]}, {"conceptId": "C130602", "definition": "Quick Inventory of Depressive Symptomatology - Self-Report - Enter the highest score on either of the 2 psychomotor items.", "preferredTerm": "QIDS-SR - Highest Score Psychomotor Items", "submissionValue": "QIDSR119", "synonyms": ["QIDSR1-Highest Score Psychomotor Items"]}, {"conceptId": "C130603", "definition": "Quick Inventory of Depressive Symptomatology - Self-Report - Total score.", "preferredTerm": "QIDS-SR - Total Score", "submissionValue": "QIDSR120", "synonyms": ["QIDSR1-Total Score"]}]}