{"_links": {"parentPackage": {"href": "/mdr/ct/packages/sdtmct-2020-12-18", "title": "SDTM Controlled Terminology Package 44 Effective 2020-12-18", "type": "Terminology"}, "priorVersion": {"href": "/mdr/ct/packages/sdtmct-2020-11-06/codelists/C130240", "title": "CDISC Clinical Classification VLERS Test Name Terminology", "type": "Code List"}, "rootItem": {"href": "/mdr/root/ct/sdtmct/codelists/C130240", "title": "Version-agnostic anchor resource for codelist C130240", "type": "Root Value Domain"}, "self": {"href": "/mdr/ct/packages/sdtmct-2020-12-18/codelists/C130240", "title": "CDISC Clinical Classification VLERS Test Name Terminology", "type": "Code List"}}, "conceptId": "C130240", "definition": "Vignos Lower Extremity Rating Scale test name.", "extensible": "false", "name": "Vignos Lower Extremity Rating Scale Clinical Classification Test Name", "preferredTerm": "CDISC Clinical Classification VLERS Test Name Terminology", "submissionValue": "VLERS1TN", "synonyms": ["Vignos Lower Extremity Rating Scale Clinical Classification Test Name"], "terms": [{"conceptId": "C130327", "definition": "Vignos Lower Extremity Rating Scale - Vignos rating scale.", "preferredTerm": "VLERS - Vignos Lower Extremity Rating", "submissionValue": "VLERS1-Vignos Lower Extremity Rating", "synonyms": ["VLERS1-Vignos Lower Extremity Rating"]}]}