{"_links": {"parentPackage": {"href": "/mdr/ct/packages/sdtmct-2020-12-18", "title": "SDTM Controlled Terminology Package 44 Effective 2020-12-18", "type": "Terminology"}, "priorVersion": {"href": "/mdr/ct/packages/sdtmct-2020-11-06/codelists/C135692", "title": "CDISC Questionnaire PCL-5 Test Code Terminology", "type": "Code List"}, "rootItem": {"href": "/mdr/root/ct/sdtmct/codelists/C135692", "title": "Version-agnostic anchor resource for codelist C135692", "type": "Root Value Domain"}, "self": {"href": "/mdr/ct/packages/sdtmct-2020-12-18/codelists/C135692", "title": "CDISC Questionnaire PCL-5 Test Code Terminology", "type": "Code List"}}, "conceptId": "C135692", "definition": "The PTSD Checklist for DSM-5 test code.", "extensible": "false", "name": "The PTSD Checklist for DSM-5 Questionnaire Test Code", "preferredTerm": "CDISC Questionnaire PCL-5 Test Code Terminology", "submissionValue": "PCL01TC", "synonyms": ["The PTSD Checklist for DSM-5 Questionnaire Test Code"], "terms": [{"conceptId": "C135922", "definition": "The PTSD Checklist for DSM-5 - In the past month, how much were you bothered by: Repeated, disturbing, and unwanted memories of the stressful experience?", "preferredTerm": "PCL-5 - Repeated Disturbing Memories", "submissionValue": "PCL0101", "synonyms": ["PCL01-Repeated Disturbing Memories"]}, {"conceptId": "C135923", "definition": "The PTSD Checklist for DSM-5 - In the past month, how much were you bothered by: Repeated, disturbing dreams of the stressful experience?", "preferredTerm": "PCL-5 - Repeated Disturbing Dreams", "submissionValue": "PCL0102", "synonyms": ["PCL01-Repeated Disturbing Dreams"]}, {"conceptId": "C135924", "definition": "The PTSD Checklist for DSM-5 - In the past month, how much were you bothered by: Suddenly feeling or acting as if the stressful experience were actually happening again (as if you were actually back there reliving it)?", "preferredTerm": "PCL-5 - Suddenly Feeling Happening Again", "submissionValue": "PCL0103", "synonyms": ["PCL01-Suddenly Feeling Happening Again"]}, {"conceptId": "C135925", "definition": "The PTSD Checklist for DSM-5 - In the past month, how much were you bothered by: Feeling very upset when something reminded you of the stressful experience?", "preferredTerm": "PCL-5 - Feel Upset When Reminded", "submissionValue": "PCL0104", "synonyms": ["PCL01-Feel Upset When Reminded"]}, {"conceptId": "C135926", "definition": "The PTSD Checklist for DSM-5 - In the past month, how much were you bothered by: Having strong physical reactions when something reminded you of the stressful experience (for example, heart pounding, trouble breathing, sweating)?", "preferredTerm": "PCL-5 - Strong Physical Reactions", "submissionValue": "PCL0105", "synonyms": ["PCL01-Strong Physical Reactions"]}, {"conceptId": "C135927", "definition": "The PTSD Checklist for DSM-5 - In the past month, how much were you bothered by: Avoiding memories, thoughts, or feelings related to the stressful experience?", "preferredTerm": "PCL-5 - Avoid Memories, Thoughts or Feelings", "submissionValue": "PCL0106", "synonyms": ["PCL01-Avoid Memories/Thoughts/Feelings"]}, {"conceptId": "C135928", "definition": "The PTSD Checklist for DSM-5 - In the past month, how much were you bothered by: Avoiding external reminders of the stressful experience (for example, people, places, conversations, activities, objects, or situations)?", "preferredTerm": "PCL-5 - Avoid External Reminders", "submissionValue": "PCL0107", "synonyms": ["PCL01-Avoid External Reminders"]}, {"conceptId": "C135929", "definition": "The PTSD Checklist for DSM-5 - In the past month, how much were you bothered by: Trouble remembering important parts of the stressful experience?", "preferredTerm": "PCL-5 - Trouble Remembering Important Parts", "submissionValue": "PCL0108", "synonyms": ["PCL01-Trouble Remembering Important Part"]}, {"conceptId": "C135930", "definition": "The PTSD Checklist for DSM-5 - In the past month, how much were you bothered by: Having strong negative beliefs about yourself, other people, or the world (for example, having thoughts such as: I am bad, there is something seriously wrong with me, no one can be trusted, the world is completely dangerous)?", "preferredTerm": "PCL-5 - Strong Negative Beliefs", "submissionValue": "PCL0109", "synonyms": ["PCL01-Strong Negative Beliefs"]}, {"conceptId": "C135931", "definition": "The PTSD Checklist for DSM-5 - In the past month, how much were you bothered by: Blaming yourself or someone else for the stressful experience or what happened after it?", "preferredTerm": "PCL-5 - Blaming Yourself or Someone Else", "submissionValue": "PCL0110", "synonyms": ["PCL01-Blaming Yourself/Someone Else"]}, {"conceptId": "C135932", "definition": "The PTSD Checklist for DSM-5 - In the past month, how much were you bothered by: Having strong negative feelings such as fear, horror, anger, guilt, or shame?", "preferredTerm": "PCL-5 - Strong Negative Feelings", "submissionValue": "PCL0111", "synonyms": ["PCL01-Strong Negative Feelings"]}, {"conceptId": "C135933", "definition": "The PTSD Checklist for DSM-5 - In the past month, how much were you bothered by: Loss of interest in activities that you used to enjoy?", "preferredTerm": "PCL-5 - Loss of Interest in Activities", "submissionValue": "PCL0112", "synonyms": ["PCL01-Loss of Interest in Activities"]}, {"conceptId": "C135934", "definition": "The PTSD Checklist for DSM-5 - In the past month, how much were you bothered by: Feeling distant or cut off from other people?", "preferredTerm": "PCL-5 - Feeling Distant From People", "submissionValue": "PCL0113", "synonyms": ["PCL01-Feeling Distant From People"]}, {"conceptId": "C135935", "definition": "The PTSD Checklist for DSM-5 - In the past month, how much were you bothered by: Trouble experiencing positive feelings (for example, being unable to feel happiness or have loving feelings for people close to you)?", "preferredTerm": "PCL-5 - Trouble Experiencing Positive Feelings", "submissionValue": "PCL0114", "synonyms": ["PCL01-Trouble Experiencing Pos Feelings"]}, {"conceptId": "C135936", "definition": "The PTSD Checklist for DSM-5 - In the past month, how much were you bothered by: Irritable behavior, angry outbursts, or acting aggressively?", "preferredTerm": "PCL-5 - Irritable Behavior or Angry Outbursts", "submissionValue": "PCL0115", "synonyms": ["PCL01-Irritable Behavior/Angry Outbursts"]}, {"conceptId": "C135937", "definition": "The PTSD Checklist for DSM-5 - In the past month, how much were you bothered by: Taking too many risks or doing things that could cause you harm?", "preferredTerm": "PCL-5 - Taking Too Many Risks or Cause Harm", "submissionValue": "PCL0116", "synonyms": ["PCL01-Taking Too Many Risks/Cause Harm"]}, {"conceptId": "C135938", "definition": "The PTSD Checklist for DSM-5 - In the past month, how much were you bothered by: Being \"superalert\" or watchful or on guard?", "preferredTerm": "PCL-5 - Being Super Alert or Watchful", "submissionValue": "PCL0117", "synonyms": ["PCL01-Being Superalert/Watchful/on Guard"]}, {"conceptId": "C135939", "definition": "The PTSD Checklist for DSM-5 - In the past month, how much were you bothered by: Feeling jumpy or easily startled?", "preferredTerm": "PCL-5 - Feeling Jumpy or Easily Startled", "submissionValue": "PCL0118", "synonyms": ["PCL01-Feeling Jumpy or Easily Startled"]}, {"conceptId": "C135940", "definition": "The PTSD Checklist for DSM-5 - In the past month, how much were you bothered by: Having difficulty concentrating?", "preferredTerm": "PCL-5 - Having Difficulty Concentrating", "submissionValue": "PCL0119", "synonyms": ["PCL01-Having Difficulty Concentrating"]}, {"conceptId": "C135941", "definition": "The PTSD Checklist for DSM-5 - In the past month, how much were you bothered by: Trouble falling or staying asleep?", "preferredTerm": "PCL-5 - Trouble Falling or Staying Asleep", "submissionValue": "PCL0120", "synonyms": ["PCL01-Trouble Falling or Staying Asleep"]}]}