{"_links": {"parentPackage": {"href": "/mdr/ct/packages/sdtmct-2020-12-18", "title": "SDTM Controlled Terminology Package 44 Effective 2020-12-18", "type": "Terminology"}, "priorVersion": {"href": "/mdr/ct/packages/sdtmct-2020-11-06/codelists/C135011", "title": "CDISC SDTM Pharmacogenomics/Genetics Methods and Supporting Information Test Name Terminology", "type": "Code List"}, "rootItem": {"href": "/mdr/root/ct/sdtmct/codelists/C135011", "title": "Version-agnostic anchor resource for codelist C135011", "type": "Root Value Domain"}, "self": {"href": "/mdr/ct/packages/sdtmct-2020-12-18/codelists/C135011", "title": "CDISC SDTM Pharmacogenomics/Genetics Methods and Supporting Information Test Name Terminology", "type": "Code List"}}, "conceptId": "C135011", "definition": "A terminology codelist to describe the test name for genomics data methods and supporting information.", "extensible": "true", "name": "Pharmacogenomics/Genetics Methods and Supporting Information Test Name", "preferredTerm": "CDISC SDTM Pharmacogenomics/Genetics Methods and Supporting Information Test Name Terminology", "submissionValue": "PGTST", "synonyms": ["Pharmacogenomics/Genetics Methods and Supporting Information Test Name"], "terms": [{"conceptId": "C43685", "definition": "The accession number for a gene within the GenBank database.", "preferredTerm": "GenBank Accession Number", "submissionValue": "GenBank ID", "synonyms": ["GenBank ID"]}, {"conceptId": "C135487", "definition": "The number of nucleotides that make up a genetic sequence of interest.", "preferredTerm": "Genetic Sequence Length", "submissionValue": "Genetic Sequence Length", "synonyms": ["Genetic Sequence Length"]}, {"conceptId": "C135488", "definition": "The nucleotide location that represents the beginning of a genetic sequence of interest.", "preferredTerm": "Genetic Sequence Start Location", "submissionValue": "Genetic Sequence Start Location", "synonyms": ["Genetic Sequence Start Location"]}, {"conceptId": "C135485", "definition": "The sequence of nucleotide residues along a genetic sub-region of interest. (NCI)", "preferredTerm": "Genetic Sub-Region Sequence", "submissionValue": "Genetic Sub-Region Sequence", "synonyms": ["Genetic Sub-Region Sequence"]}, {"conceptId": "C135486", "definition": "The anticipated or extrapolated frequency of a single nucleotide polymorphism within a population.", "preferredTerm": "Predicted Single Nucleotide Polymorphism Frequency", "submissionValue": "Predicted SNP Frequency", "synonyms": ["Predicted SNP Frequency"]}]}