{"_links": {"parentPackage": {"href": "/mdr/ct/packages/sdtmct-2020-12-18", "title": "SDTM Controlled Terminology Package 44 Effective 2020-12-18", "type": "Terminology"}, "priorVersion": {"href": "/mdr/ct/packages/sdtmct-2020-11-06/codelists/C138239", "title": "CDISC Questionnaire PedsQL Neuromuscular Module Acute Version 3.0 Teen Report Test Code Terminology", "type": "Code List"}, "rootItem": {"href": "/mdr/root/ct/sdtmct/codelists/C138239", "title": "Version-agnostic anchor resource for codelist C138239", "type": "Root Value Domain"}, "self": {"href": "/mdr/ct/packages/sdtmct-2020-12-18/codelists/C138239", "title": "CDISC Questionnaire PedsQL Neuromuscular Module Acute Version 3.0 Teen Report Test Code Terminology", "type": "Code List"}}, "conceptId": "C138239", "definition": "Pediatric Quality of Life Neuromuscular Module Acute Version 3 Teen test code.", "extensible": "false", "name": "Pediatric Quality of Life Neuromuscular Module Acute Version 3 Teen Questionnaire Test Code", "preferredTerm": "CDISC Questionnaire PedsQL Neuromuscular Module Acute Version 3.0 Teen Report Test Code Terminology", "submissionValue": "PQL12TC", "synonyms": ["Pediatric Quality of Life Neuromuscular Module Acute Version 3 Teen Questionnaire Test Code"], "terms": [{"conceptId": "C138615", "definition": "Pediatric Quality of Life Neuromuscular Module Acute Version 3 Teen - In the past 7 days, how much of a problem has this been for you: It is hard to breathe.", "preferredTerm": "PedsQL Neuromuscular Module Acute Version 3.0 Teen Report - Hard to Breathe", "submissionValue": "PQL1201", "synonyms": ["PQL12-Hard to Breathe"]}, {"conceptId": "C138616", "definition": "Pediatric Quality of Life Neuromuscular Module Acute Version 3 Teen - In the past 7 days, how much of a problem has this been for you: I get sick easily.", "preferredTerm": "PedsQL Neuromuscular Module Acute Version 3.0 Teen Report - Get Sick Easily", "submissionValue": "PQL1202", "synonyms": ["PQL12-Get Sick Easily"]}, {"conceptId": "C138617", "definition": "Pediatric Quality of Life Neuromuscular Module Acute Version 3 Teen - In the past 7 days, how much of a problem has this been for you: I get sores and/or rashes.", "preferredTerm": "PedsQL Neuromuscular Module Acute Version 3.0 Teen Report - Get Sores and/or Rashes", "submissionValue": "PQL1203", "synonyms": ["PQL12-Get Sores and/or Rashes"]}, {"conceptId": "C138618", "definition": "Pediatric Quality of Life Neuromuscular Module Acute Version 3 Teen - In the past 7 days, how much of a problem has this been for you: My legs hurt.", "preferredTerm": "PedsQL Neuromuscular Module Acute Version 3.0 Teen Report - Legs Hurt", "submissionValue": "PQL1204", "synonyms": ["PQL12-Legs Hurt"]}, {"conceptId": "C138619", "definition": "Pediatric Quality of Life Neuromuscular Module Acute Version 3 Teen - In the past 7 days, how much of a problem has this been for you: I feel tired.", "preferredTerm": "PedsQL Neuromuscular Module Acute Version 3.0 Teen Report - Feel Tired", "submissionValue": "PQL1205", "synonyms": ["PQL12-Feel Tired"]}, {"conceptId": "C138620", "definition": "Pediatric Quality of Life Neuromuscular Module Acute Version 3 Teen - In the past 7 days, how much of a problem has this been for you: My back feels stiff.", "preferredTerm": "PedsQL Neuromuscular Module Acute Version 3.0 Teen Report - Back Feels Stiff", "submissionValue": "PQL1206", "synonyms": ["PQL12-Back Feels Stiff"]}, {"conceptId": "C138621", "definition": "Pediatric Quality of Life Neuromuscular Module Acute Version 3 Teen - In the past 7 days, how much of a problem has this been for you: I wake up tired.", "preferredTerm": "PedsQL Neuromuscular Module Acute Version 3.0 Teen Report - Wake Up Tired", "submissionValue": "PQL1207", "synonyms": ["PQL12-Wake Up Tired"]}, {"conceptId": "C138622", "definition": "Pediatric Quality of Life Neuromuscular Module Acute Version 3 Teen - In the past 7 days, how much of a problem has this been for you: My hands are weak.", "preferredTerm": "PedsQL Neuromuscular Module Acute Version 3.0 Teen Report - Hands Are Weak", "submissionValue": "PQL1208", "synonyms": ["PQL12-Hands Are Weak"]}, {"conceptId": "C138623", "definition": "Pediatric Quality of Life Neuromuscular Module Acute Version 3 Teen - In the past 7 days, how much of a problem has this been for you: It is hard to use the bathroom.", "preferredTerm": "PedsQL Neuromuscular Module Acute Version 3.0 Teen Report - Hard to Use Bathroom", "submissionValue": "PQL1209", "synonyms": ["PQL12-Hard to Use Bathroom"]}, {"conceptId": "C138624", "definition": "Pediatric Quality of Life Neuromuscular Module Acute Version 3 Teen - In the past 7 days, how much of a problem has this been for you: It is hard to gain or lose weight when I want to.", "preferredTerm": "PedsQL Neuromuscular Module Acute Version 3.0 Teen Report - Hard to Gain or Lose Weight", "submissionValue": "PQL1210", "synonyms": ["PQL12-Hard to Gain/Lose Weight"]}, {"conceptId": "C138625", "definition": "Pediatric Quality of Life Neuromuscular Module Acute Version 3 Teen - In the past 7 days, how much of a problem has this been for you: It is hard to use my hands.", "preferredTerm": "PedsQL Neuromuscular Module Acute Version 3.0 Teen Report - Hard to Use Hands", "submissionValue": "PQL1211", "synonyms": ["PQL12-Hard to Use Hands"]}, {"conceptId": "C138626", "definition": "Pediatric Quality of Life Neuromuscular Module Acute Version 3 Teen - In the past 7 days, how much of a problem has this been for you: It is hard to swallow food.", "preferredTerm": "PedsQL Neuromuscular Module Acute Version 3.0 Teen Report - Hard to Swallow Food", "submissionValue": "PQL1212", "synonyms": ["PQL12-Hard to Swallow Food"]}, {"conceptId": "C138627", "definition": "Pediatric Quality of Life Neuromuscular Module Acute Version 3 Teen - In the past 7 days, how much of a problem has this been for you: It takes me a long time to bathe or shower.", "preferredTerm": "PedsQL Neuromuscular Module Acute Version 3.0 Teen Report - Long Time to Bathe or Shower", "submissionValue": "PQL1213", "synonyms": ["PQL12-Long Time to Bathe/Shower"]}, {"conceptId": "C138628", "definition": "Pediatric Quality of Life Neuromuscular Module Acute Version 3 Teen - In the past 7 days, how much of a problem has this been for you: I get hurt accidentally.", "preferredTerm": "PedsQL Neuromuscular Module Acute Version 3.0 Teen Report - Get Hurt Accidentally", "submissionValue": "PQL1214", "synonyms": ["PQL12-Get Hurt Accidentally"]}, {"conceptId": "C138629", "definition": "Pediatric Quality of Life Neuromuscular Module Acute Version 3 Teen - In the past 7 days, how much of a problem has this been for you: I take a long time to eat.", "preferredTerm": "PedsQL Neuromuscular Module Acute Version 3.0 Teen Report - Take Long Time to Eat", "submissionValue": "PQL1215", "synonyms": ["PQL12-Take Long Time to Eat"]}, {"conceptId": "C138630", "definition": "Pediatric Quality of Life Neuromuscular Module Acute Version 3 Teen - In the past 7 days, how much of a problem has this been for you: It is hard to turn myself during the night.", "preferredTerm": "PedsQL Neuromuscular Module Acute Version 3.0 Teen Report - Hard to Turn During Night", "submissionValue": "PQL1216", "synonyms": ["PQL12-Hard to Turn During Night"]}, {"conceptId": "C138631", "definition": "Pediatric Quality of Life Neuromuscular Module Acute Version 3 Teen - In the past 7 days, how much of a problem has this been for you: It is hard for me to go places with my equipment.", "preferredTerm": "PedsQL Neuromuscular Module Acute Version 3.0 Teen Report - Hard to Go Places With Equipment", "submissionValue": "PQL1217", "synonyms": ["PQL12-Hard to Go Places With Equipment"]}, {"conceptId": "C138632", "definition": "Pediatric Quality of Life Neuromuscular Module Acute Version 3 Teen - In the past 7 days, how much of a problem has this been for you: It is hard for me to tell the doctors and nurses how I feel.", "preferredTerm": "PedsQL Neuromuscular Module Acute Version 3.0 Teen Report - Hard Tell Doctors and Nurses How Feel", "submissionValue": "PQL1218", "synonyms": ["PQL12-Hard Tell Doctors/Nurses How Feel"]}, {"conceptId": "C138633", "definition": "Pediatric Quality of Life Neuromuscular Module Acute Version 3 Teen - In the past 7 days, how much of a problem has this been for you: It is hard for me to ask the doctors and nurses questions.", "preferredTerm": "PedsQL Neuromuscular Module Acute Version 3.0 Teen Report - Hard Ask Doctors and Nurses Questions", "submissionValue": "PQL1219", "synonyms": ["PQL12-Hard Ask Doctors/Nurses Questions"]}, {"conceptId": "C138634", "definition": "Pediatric Quality of Life Neuromuscular Module Acute Version 3 Teen - In the past 7 days, how much of a problem has this been for you: It is hard for me to explain my illness to other people.", "preferredTerm": "PedsQL Neuromuscular Module Acute Version 3.0 Teen Report - Hard Explain Illness to People", "submissionValue": "PQL1220", "synonyms": ["PQL12-Hard Explain Illness to People"]}, {"conceptId": "C138635", "definition": "Pediatric Quality of Life Neuromuscular Module Acute Version 3 Teen - In the past 7 days, how much of a problem has this been for you: It is hard for my family to plan activities like vacations.", "preferredTerm": "PedsQL Neuromuscular Module Acute Version 3.0 Teen Report - Hard for Family to Plan Activities", "submissionValue": "PQL1221", "synonyms": ["PQL12-Hard for Family to Plan Activities"]}, {"conceptId": "C138636", "definition": "Pediatric Quality of Life Neuromuscular Module Acute Version 3 Teen - In the past 7 days, how much of a problem has this been for you: It is hard for my family to get enough rest.", "preferredTerm": "PedsQL Neuromuscular Module Acute Version 3.0 Teen Report - Hard for Family to Rest", "submissionValue": "PQL1222", "synonyms": ["PQL12-Hard for Family to Rest"]}, {"conceptId": "C138637", "definition": "Pediatric Quality of Life Neuromuscular Module Acute Version 3 Teen - In the past 7 days, how much of a problem has this been for you: I think money is a problem in our family.", "preferredTerm": "PedsQL Neuromuscular Module Acute Version 3.0 Teen Report - Money Problem in Our Family", "submissionValue": "PQL1223", "synonyms": ["PQL12-Money Problem in Our Family"]}, {"conceptId": "C138638", "definition": "Pediatric Quality of Life Neuromuscular Module Acute Version 3 Teen - In the past 7 days, how much of a problem has this been for you: I think my family has a lot of problems.", "preferredTerm": "PedsQL Neuromuscular Module Acute Version 3.0 Teen Report - Family Has Lot of Problems", "submissionValue": "PQL1224", "synonyms": ["PQL12-Family Has Lot of Problems"]}, {"conceptId": "C138639", "definition": "Pediatric Quality of Life Neuromuscular Module Acute Version 3 Teen - In the past 7 days, how much of a problem has this been for you: I do not have the equipment I need.", "preferredTerm": "PedsQL Neuromuscular Module Acute Version 3.0 Teen Report - Do Not Have Equipment Need", "submissionValue": "PQL1225", "synonyms": ["PQL12-Do Not Have Equipment Need"]}]}