{"_links": {"parentPackage": {"href": "/mdr/ct/packages/sdtmct-2020-12-18", "title": "SDTM Controlled Terminology Package 44 Effective 2020-12-18", "type": "Terminology"}, "priorVersion": {"href": "/mdr/ct/packages/sdtmct-2020-11-06/codelists/C141654", "title": "CDISC Clinical Classification AJCC v7 Test Name Terminology", "type": "Code List"}, "rootItem": {"href": "/mdr/root/ct/sdtmct/codelists/C141654", "title": "Version-agnostic anchor resource for codelist C141654", "type": "Root Value Domain"}, "self": {"href": "/mdr/ct/packages/sdtmct-2020-12-18/codelists/C141654", "title": "CDISC Clinical Classification AJCC v7 Test Name Terminology", "type": "Code List"}}, "conceptId": "C141654", "definition": "AJCC TNM Staging System 7th Edition test name.", "extensible": "false", "name": "AJCC TNM Staging System 7th Edition Clinical Classification Test Name", "preferredTerm": "CDISC Clinical Classification AJCC v7 Test Name Terminology", "submissionValue": "AJCC1TN", "synonyms": ["AJCC TNM Staging System 7th Edition Clinical Classification Test Name"], "terms": [{"conceptId": "C141699", "definition": "AJCC TNM Staging System 7th Edition - Anatomic stage.", "preferredTerm": "AJCC v7 - Anatomic Stage", "submissionValue": "AJCC1-Anatomic Stage", "synonyms": ["AJCC1-Anatomic Stage"]}, {"conceptId": "C141698", "definition": "AJCC TNM Staging System 7th Edition - Distant metastasis (M).", "preferredTerm": "AJCC v7 - Distant Metastasis (M)", "submissionValue": "AJCC1-Distant Metastasis (M)", "synonyms": ["AJCC1-Distant Metastasis (M)"]}, {"conceptId": "C141696", "definition": "AJCC TNM Staging System 7th Edition - Primary tumor (T).", "preferredTerm": "AJCC v7 - Primary Tumor (T)", "submissionValue": "AJCC1-Primary Tumor (T)", "synonyms": ["AJCC1-Primary Tumor (T)"]}, {"conceptId": "C141697", "definition": "AJCC TNM Staging System 7th Edition - Regional lymph nodes (N).", "preferredTerm": "AJCC v7 - Regional Lymph Nodes (N)", "submissionValue": "AJCC1-Regional Lymph Nodes (N)", "synonyms": ["AJCC1-Regional Lymph Nodes (N)"]}, {"conceptId": "C176205", "definition": "AJCC TNM Staging System 7th Edition - Residual tumor (R).", "preferredTerm": "AJCC v7 - Residual Tumor (R)", "submissionValue": "AJCC1-Residual Tumor (R)", "synonyms": ["AJCC1-Residual Tumor (R)"]}]}