{"_links": {"parentPackage": {"href": "/mdr/ct/packages/sdtmct-2020-12-18", "title": "SDTM Controlled Terminology Package 44 Effective 2020-12-18", "type": "Terminology"}, "priorVersion": {"href": "/mdr/ct/packages/sdtmct-2020-11-06/codelists/C141657", "title": "CDISC Functional Test 10-Meter Walk/Run Test Code Terminology", "type": "Code List"}, "rootItem": {"href": "/mdr/root/ct/sdtmct/codelists/C141657", "title": "Version-agnostic anchor resource for codelist C141657", "type": "Root Value Domain"}, "self": {"href": "/mdr/ct/packages/sdtmct-2020-12-18/codelists/C141657", "title": "CDISC Functional Test 10-Meter Walk/Run Test Code Terminology", "type": "Code List"}}, "conceptId": "C141657", "definition": "10-Meter Walk/Run test code.", "extensible": "false", "name": "10-Meter Walk/Run Functional Test Test Code", "preferredTerm": "CDISC Functional Test 10-Meter Walk/Run Test Code Terminology", "submissionValue": "TENMW1TC", "synonyms": ["10-Meter Walk/Run Functional Test Test Code"], "terms": [{"conceptId": "C174106", "definition": "10-Meter Walk/Run - Was the 10-meter walk/run performed?", "preferredTerm": "10-Meter Walk/Run - Was Walk/Run Performed", "submissionValue": "TENMW101", "synonyms": ["TENMW1-Was Walk/Run Performed"]}, {"conceptId": "C141700", "definition": "10-Meter Walk/Run - If yes, time to walk or run 10 meters.", "preferredTerm": "10-Meter Walk/Run - Time to Walk/Run 10 Meters", "submissionValue": "TENMW102", "synonyms": ["TENMW1-Time to Walk/Run 10 Meters"]}, {"conceptId": "C147592", "definition": "10-Meter Walk/Run - If yes, did subject wear orthoses?", "preferredTerm": "10-Meter Walk/Run - Wear Orthoses", "submissionValue": "TENMW103", "synonyms": ["TENMW1-Wear Orthoses"]}, {"conceptId": "C141701", "definition": "10-Meter Walk/Run - Test grade.", "preferredTerm": "10-Meter Walk/Run - Test Grade", "submissionValue": "TENMW104", "synonyms": ["TENMW1-Test Grade"]}]}