{"_links": {"parentPackage": {"href": "/mdr/ct/packages/sdtmct-2020-12-18", "title": "SDTM Controlled Terminology Package 44 Effective 2020-12-18", "type": "Terminology"}, "priorVersion": {"href": "/mdr/ct/packages/sdtmct-2020-11-06/codelists/C150776", "title": "CDISC Questionnaire FACT-Taxane Version 4 Test Code Terminology", "type": "Code List"}, "rootItem": {"href": "/mdr/root/ct/sdtmct/codelists/C150776", "title": "Version-agnostic anchor resource for codelist C150776", "type": "Root Value Domain"}, "self": {"href": "/mdr/ct/packages/sdtmct-2020-12-18/codelists/C150776", "title": "CDISC Questionnaire FACT-Taxane Version 4 Test Code Terminology", "type": "Code List"}}, "conceptId": "C150776", "definition": "Functional Assessment of Cancer Therapy-Taxane Version 4 test code.", "extensible": "false", "name": "Functional Assessment of Cancer Therapy-Taxane Version 4 Questionnaire Test Code", "preferredTerm": "CDISC Questionnaire FACT-Taxane Version 4 Test Code Terminology", "submissionValue": "FAC063TC", "synonyms": ["Functional Assessment of Cancer Therapy-Taxane Version 4 Questionnaire Test Code"], "terms": [{"conceptId": "C151113", "definition": "Functional Assessment of Cancer Therapy-Taxane Version 4 - Physical Well-Being: I have a lack of energy.", "preferredTerm": "FACT-Taxane Version 4 - I Have a Lack of Energy", "submissionValue": "FAC06301", "synonyms": ["FAC063-I Have a Lack of Energy"]}, {"conceptId": "C151114", "definition": "Functional Assessment of Cancer Therapy-Taxane Version 4 - Physical Well-Being: I have nausea.", "preferredTerm": "FACT-Taxane Version 4 - I Have Nausea", "submissionValue": "FAC06302", "synonyms": ["FAC063-I Have Nausea"]}, {"conceptId": "C151115", "definition": "Functional Assessment of Cancer Therapy-Taxane Version 4 - Physical Well-Being: Because of my physical condition, I have trouble meeting the needs of my family.", "preferredTerm": "FACT-Taxane Version 4 - Trouble Meeting Needs of Family", "submissionValue": "FAC06303", "synonyms": ["FAC063-Trouble Meeting Needs of Family"]}, {"conceptId": "C151116", "definition": "Functional Assessment of Cancer Therapy-Taxane Version 4 - Physical Well-Being: I have pain.", "preferredTerm": "FACT-Taxane Version 4 - I Have Pain", "submissionValue": "FAC06304", "synonyms": ["FAC063-I Have Pain"]}, {"conceptId": "C151117", "definition": "Functional Assessment of Cancer Therapy-Taxane Version 4 - Physical Well-Being: I am bothered by side effects of treatment.", "preferredTerm": "FACT-Taxane Version 4 - Bothered by Treatment Side Effect", "submissionValue": "FAC06305", "synonyms": ["FAC063-Bothered by Treatment Side Effect"]}, {"conceptId": "C151118", "definition": "Functional Assessment of Cancer Therapy-Taxane Version 4 - Physical Well-Being: I feel ill.", "preferredTerm": "FACT-Taxane Version 4 - I Feel Ill", "submissionValue": "FAC06306", "synonyms": ["FAC063-I Feel Ill"]}, {"conceptId": "C151119", "definition": "Functional Assessment of Cancer Therapy-Taxane Version 4 - Physical Well-Being: I am forced to spend time in bed.", "preferredTerm": "FACT-Taxane Version 4 - I Am Forced to Spend Time in Bed", "submissionValue": "FAC06307", "synonyms": ["FAC063-I Am Forced to Spend Time in Bed"]}, {"conceptId": "C151120", "definition": "Functional Assessment of Cancer Therapy-Taxane Version 4 - Social/Family Well-Being: I feel close to my friends.", "preferredTerm": "FACT-Taxane Version 4 - I Feel Close to My Friends", "submissionValue": "FAC06308", "synonyms": ["FAC063-I Feel Close to My Friends"]}, {"conceptId": "C151121", "definition": "Functional Assessment of Cancer Therapy-Taxane Version 4 - Social/Family Well-Being: I get emotional support from my family.", "preferredTerm": "FACT-Taxane Version 4 - Get Emotional Support From Family", "submissionValue": "FAC06309", "synonyms": ["FAC063-Get Emotional Support From Family"]}, {"conceptId": "C151122", "definition": "Functional Assessment of Cancer Therapy-Taxane Version 4 - Social/Family Well-Being: I get support from my friends.", "preferredTerm": "FACT-Taxane Version 4 - I Get Support From My Friends", "submissionValue": "FAC06310", "synonyms": ["FAC063-I Get Support From My Friends"]}, {"conceptId": "C151123", "definition": "Functional Assessment of Cancer Therapy-Taxane Version 4 - Social/Family Well-Being: My family has accepted my illness.", "preferredTerm": "FACT-Taxane Version 4 - My Family Has Accepted My Illness", "submissionValue": "FAC06311", "synonyms": ["FAC063-My Family Has Accepted My Illness"]}, {"conceptId": "C151124", "definition": "Functional Assessment of Cancer Therapy-Taxane Version 4 - Social/Family Well-Being: I am satisfied with family communication about my illness.", "preferredTerm": "FACT-Taxane Version 4 - Satisfied Communication Illness", "submissionValue": "FAC06312", "synonyms": ["FAC063-Satisfied Communication Illness"]}, {"conceptId": "C151125", "definition": "Functional Assessment of Cancer Therapy-Taxane Version 4 - Social/Family Well-Being: I feel close to my partner (or the person who is my main support).", "preferredTerm": "FACT-Taxane Version 4 - I Feel Close to My Partner", "submissionValue": "FAC06313", "synonyms": ["FAC063-I Feel Close to My Partner"]}, {"conceptId": "C151126", "definition": "Functional Assessment of Cancer Therapy-Taxane Version 4 - Social/Family Well-Being: I am satisfied with my sex life.", "preferredTerm": "FACT-Taxane Version 4 - I Am Satisfied With My Sex Life", "submissionValue": "FAC06314", "synonyms": ["FAC063-I Am Satisfied With My Sex Life"]}, {"conceptId": "C151127", "definition": "Functional Assessment of Cancer Therapy-Taxane Version 4 - Emotional Well-Being: I feel sad.", "preferredTerm": "FACT-Taxane Version 4 - I Feel Sad", "submissionValue": "FAC06315", "synonyms": ["FAC063-I Feel Sad"]}, {"conceptId": "C151128", "definition": "Functional Assessment of Cancer Therapy-Taxane Version 4 - Emotional Well-Being: I am satisfied with how I am coping with my illness.", "preferredTerm": "FACT-Taxane Version 4 - Satisfied With How I Am Coping", "submissionValue": "FAC06316", "synonyms": ["FAC063-Satisfied With How I Am Coping"]}, {"conceptId": "C151129", "definition": "Functional Assessment of Cancer Therapy-Taxane Version 4 - Emotional Well-Being: I am losing hope in the fight against my illness.", "preferredTerm": "FACT-Taxane Version 4 - Losing Hope Against Illness", "submissionValue": "FAC06317", "synonyms": ["FAC063-Losing Hope Against Illness"]}, {"conceptId": "C151130", "definition": "Functional Assessment of Cancer Therapy-Taxane Version 4 - Emotional Well-Being: I feel nervous.", "preferredTerm": "FACT-Taxane Version 4 - I Feel Nervous", "submissionValue": "FAC06318", "synonyms": ["FAC063-I Feel Nervous"]}, {"conceptId": "C151131", "definition": "Functional Assessment of Cancer Therapy-Taxane Version 4 - Emotional Well-Being: I worry about dying.", "preferredTerm": "FACT-Taxane Version 4 - I Worry About Dying", "submissionValue": "FAC06319", "synonyms": ["FAC063-I Worry About Dying"]}, {"conceptId": "C151132", "definition": "Functional Assessment of Cancer Therapy-Taxane Version 4 - Emotional Well-Being: I worry that my condition will get worse.", "preferredTerm": "FACT-Taxane Version 4 - Worry My Condition Will Get Worse", "submissionValue": "FAC06320", "synonyms": ["FAC063-Worry My Condition Will Get Worse"]}, {"conceptId": "C151133", "definition": "Functional Assessment of Cancer Therapy-Taxane Version 4 - Functional Well-Being: I am able to work (include work at home).", "preferredTerm": "FACT-Taxane Version 4 - I Am Able to Work", "submissionValue": "FAC06321", "synonyms": ["FAC063-I Am Able to Work"]}, {"conceptId": "C151134", "definition": "Functional Assessment of Cancer Therapy-Taxane Version 4 - Functional Well-Being: My work (include work at home) is fulfilling.", "preferredTerm": "FACT-Taxane Version 4 - My Work Is Fulfilling", "submissionValue": "FAC06322", "synonyms": ["FAC063-My Work Is Fulfilling"]}, {"conceptId": "C151135", "definition": "Functional Assessment of Cancer Therapy-Taxane Version 4 - Functional Well-Being: I am able to enjoy life.", "preferredTerm": "FACT-Taxane Version 4 - I Am Able to Enjoy Life", "submissionValue": "FAC06323", "synonyms": ["FAC063-I Am Able to Enjoy Life"]}, {"conceptId": "C151136", "definition": "Functional Assessment of Cancer Therapy-Taxane Version 4 - Functional Well-Being: I have accepted my illness.", "preferredTerm": "FACT-Taxane Version 4 - I Have Accepted My Illness", "submissionValue": "FAC06324", "synonyms": ["FAC063-I Have Accepted My Illness"]}, {"conceptId": "C151137", "definition": "Functional Assessment of Cancer Therapy-Taxane Version 4 - Functional Well-Being: I am sleeping well.", "preferredTerm": "FACT-Taxane Version 4 - I Am Sleeping Well", "submissionValue": "FAC06325", "synonyms": ["FAC063-I Am Sleeping Well"]}, {"conceptId": "C151138", "definition": "Functional Assessment of Cancer Therapy-Taxane Version 4 - Functional Well-Being: I am enjoying the things I usually do for fun.", "preferredTerm": "FACT-Taxane Version 4 - Enjoy Things I Usually Do for Fun", "submissionValue": "FAC06326", "synonyms": ["FAC063-Enjoy Things I Usually Do for Fun"]}, {"conceptId": "C151139", "definition": "Functional Assessment of Cancer Therapy-Taxane Version 4 - Functional Well-Being: I am content with the quality of my life right now.", "preferredTerm": "FACT-Taxane Version 4 - Content With Quality of My Life", "submissionValue": "FAC06327", "synonyms": ["FAC063-Content With Quality of My Life"]}, {"conceptId": "C151140", "definition": "Functional Assessment of Cancer Therapy-Taxane Version 4 - Additional Concerns: I have numbness or tingling in my hands.", "preferredTerm": "FACT-Taxane Version 4 - Numbness or Tingling in My Hands", "submissionValue": "FAC06328", "synonyms": ["FAC063-Numbness or Tingling in My Hands"]}, {"conceptId": "C151141", "definition": "Functional Assessment of Cancer Therapy-Taxane Version 4 - Additional Concerns: I have numbness or tingling in my feet.", "preferredTerm": "FACT-Taxane Version 4 - Numbness or Tingling in My Feet", "submissionValue": "FAC06329", "synonyms": ["FAC063-Numbness or Tingling in My Feet"]}, {"conceptId": "C151142", "definition": "Functional Assessment of Cancer Therapy-Taxane Version 4 - Additional Concerns: I feel discomfort in my hands.", "preferredTerm": "FACT-Taxane Version 4 - I Feel Discomfort in My Hands", "submissionValue": "FAC06330", "synonyms": ["FAC063-I Feel Discomfort in My Hands"]}, {"conceptId": "C151143", "definition": "Functional Assessment of Cancer Therapy-Taxane Version 4 - Additional Concerns: I feel discomfort in my feet.", "preferredTerm": "FACT-Taxane Version 4 - I Feel Discomfort in My Feet", "submissionValue": "FAC06331", "synonyms": ["FAC063-I Feel Discomfort in My Feet"]}, {"conceptId": "C151144", "definition": "Functional Assessment of Cancer Therapy-Taxane Version 4 - Additional Concerns: I have joint pain or muscle cramps.", "preferredTerm": "FACT-Taxane Version 4 - Have Joint Pain or Muscle Cramps", "submissionValue": "FAC06332", "synonyms": ["FAC063-Have Joint Pain or Muscle Cramps"]}, {"conceptId": "C151145", "definition": "Functional Assessment of Cancer Therapy-Taxane Version 4 - Additional Concerns: I feel weak all over.", "preferredTerm": "FACT-Taxane Version 4 - I Feel Weak All Over", "submissionValue": "FAC06333", "synonyms": ["FAC063-I Feel Weak All Over"]}, {"conceptId": "C151146", "definition": "Functional Assessment of Cancer Therapy-Taxane Version 4 - Additional Concerns: I have trouble hearing.", "preferredTerm": "FACT-Taxane Version 4 - I Have Trouble Hearing", "submissionValue": "FAC06334", "synonyms": ["FAC063-I Have Trouble Hearing"]}, {"conceptId": "C151147", "definition": "Functional Assessment of Cancer Therapy-Taxane Version 4 - Additional Concerns: I get a ringing or buzzing in my ears.", "preferredTerm": "FACT-Taxane Version 4 - Get Ringing or Buzzing in My Ears", "submissionValue": "FAC06335", "synonyms": ["FAC063-Get Ringing or Buzzing in My Ears"]}, {"conceptId": "C151148", "definition": "Functional Assessment of Cancer Therapy-Taxane Version 4 - Additional Concerns: I have trouble buttoning buttons.", "preferredTerm": "FACT-Taxane Version 4 - I Have Trouble Buttoning Buttons", "submissionValue": "FAC06336", "synonyms": ["FAC063-I Have Trouble Buttoning Buttons"]}, {"conceptId": "C151149", "definition": "Functional Assessment of Cancer Therapy-Taxane Version 4 - Additional Concerns: I have trouble feeling the shape of small objects when they are in my hand.", "preferredTerm": "FACT-Taxane Version 4 - Trouble Feeling Shape of Objects", "submissionValue": "FAC06337", "synonyms": ["FAC063-Trouble Feeling Shape of Objects"]}, {"conceptId": "C151150", "definition": "Functional Assessment of Cancer Therapy-Taxane Version 4 - Additional Concerns: I have trouble walking.", "preferredTerm": "FACT-Taxane Version 4 - I Have Trouble Walking", "submissionValue": "FAC06338", "synonyms": ["FAC063-I Have Trouble Walking"]}, {"conceptId": "C151151", "definition": "Functional Assessment of Cancer Therapy-Taxane Version 4 - Additional Concerns: I feel bloated.", "preferredTerm": "FACT-Taxane Version 4 - I Feel Bloated", "submissionValue": "FAC06339", "synonyms": ["FAC063-I Feel Bloated"]}, {"conceptId": "C151152", "definition": "Functional Assessment of Cancer Therapy-Taxane Version 4 - Additional Concerns: My hands are swollen.", "preferredTerm": "FACT-Taxane Version 4 - My Hands Are Swollen", "submissionValue": "FAC06340", "synonyms": ["FAC063-My Hands Are Swollen"]}, {"conceptId": "C151153", "definition": "Functional Assessment of Cancer Therapy-Taxane Version 4 - Additional Concerns: My legs or feet are swollen.", "preferredTerm": "FACT-Taxane Version 4 - My Legs or Feet Are Swollen", "submissionValue": "FAC06341", "synonyms": ["FAC063-My Legs or Feet Are Swollen"]}, {"conceptId": "C151154", "definition": "Functional Assessment of Cancer Therapy-Taxane Version 4 - Additional Concerns: I have pain in my fingertips.", "preferredTerm": "FACT-Taxane Version 4 - I Have Pain in My Fingertips", "submissionValue": "FAC06342", "synonyms": ["FAC063-I Have Pain in My Fingertips"]}, {"conceptId": "C151155", "definition": "Functional Assessment of Cancer Therapy-Taxane Version 4 - Additional Concerns: I am bothered by the way my hands or nails look.", "preferredTerm": "FACT-Taxane Version 4 - Bothered by My Hands/Nails Look", "submissionValue": "FAC06343", "synonyms": ["FAC063-Bothered by My Hands/Nails Look"]}]}