{"_links": {"parentPackage": {"href": "/mdr/ct/packages/sdtmct-2020-12-18", "title": "SDTM Controlled Terminology Package 44 Effective 2020-12-18", "type": "Terminology"}, "priorVersion": {"href": "/mdr/ct/packages/sdtmct-2020-11-06/codelists/C161625", "title": "CDISC Clinical Classification BPRS 1988 Version Test Code Terminology", "type": "Code List"}, "rootItem": {"href": "/mdr/root/ct/sdtmct/codelists/C161625", "title": "Version-agnostic anchor resource for codelist C161625", "type": "Root Value Domain"}, "self": {"href": "/mdr/ct/packages/sdtmct-2020-12-18/codelists/C161625", "title": "CDISC Clinical Classification BPRS 1988 Version Test Code Terminology", "type": "Code List"}}, "conceptId": "C161625", "definition": "Brief Psychiatric Rating Scale 1988 Version test code.", "extensible": "false", "name": "Brief Psychiatric Rating Scale 1988 Version Clinical Classification Test Code", "preferredTerm": "CDISC Clinical Classification BPRS 1988 Version Test Code Terminology", "submissionValue": "BPRS01TC", "synonyms": ["Brief Psychiatric Rating Scale 1988 Version Clinical Classification Test Code"], "terms": [{"conceptId": "C161741", "definition": "Brief Psychiatric Rating Scale 1988 Version - Somatic concern.", "preferredTerm": "BPRS 1988 Version - Somatic Concern", "submissionValue": "BPRS0101", "synonyms": ["BPRS01-Somatic Concern"]}, {"conceptId": "C161742", "definition": "Brief Psychiatric Rating Scale 1988 Version - Anxiety.", "preferredTerm": "BPRS 1988 Version - Anxiety", "submissionValue": "BPRS0102", "synonyms": ["BPRS01-Anxiety"]}, {"conceptId": "C161743", "definition": "Brief Psychiatric Rating Scale 1988 Version - Emotional withdrawal.", "preferredTerm": "BPRS 1988 Version - Emotional Withdrawal", "submissionValue": "BPRS0103", "synonyms": ["BPRS01-Emotional Withdrawal"]}, {"conceptId": "C161744", "definition": "Brief Psychiatric Rating Scale 1988 Version - Conceptual disorganization.", "preferredTerm": "BPRS 1988 Version - Conceptual Disorganization", "submissionValue": "BPRS0104", "synonyms": ["BPRS01-Conceptual Disorganization"]}, {"conceptId": "C161745", "definition": "Brief Psychiatric Rating Scale 1988 Version - Guilt feelings.", "preferredTerm": "BPRS 1988 Version - Guilt Feelings", "submissionValue": "BPRS0105", "synonyms": ["BPRS01-Guilt Feelings"]}, {"conceptId": "C161746", "definition": "Brief Psychiatric Rating Scale 1988 Version - Tension.", "preferredTerm": "BPRS 1988 Version - Tension", "submissionValue": "BPRS0106", "synonyms": ["BPRS01-Tension"]}, {"conceptId": "C161747", "definition": "Brief Psychiatric Rating Scale 1988 Version - Mannerisms and posturing.", "preferredTerm": "BPRS 1988 Version - Mannerisms and Posturing", "submissionValue": "BPRS0107", "synonyms": ["BPRS01-Mannerisms and Posturing"]}, {"conceptId": "C161748", "definition": "Brief Psychiatric Rating Scale 1988 Version - Grandiosity.", "preferredTerm": "BPRS 1988 Version - Grandiosity", "submissionValue": "BPRS0108", "synonyms": ["BPRS01-Grandiosity"]}, {"conceptId": "C161749", "definition": "Brief Psychiatric Rating Scale 1988 Version - Depressive mood.", "preferredTerm": "BPRS 1988 Version - Depressive Mood", "submissionValue": "BPRS0109", "synonyms": ["BPRS01-Depressive Mood"]}, {"conceptId": "C161750", "definition": "Brief Psychiatric Rating Scale 1988 Version - Hostility.", "preferredTerm": "BPRS 1988 Version - Hostility", "submissionValue": "BPRS0110", "synonyms": ["BPRS01-Hostility"]}, {"conceptId": "C161751", "definition": "Brief Psychiatric Rating Scale 1988 Version - Suspiciousness.", "preferredTerm": "BPRS 1988 Version - Suspiciousness", "submissionValue": "BPRS0111", "synonyms": ["BPRS01-Suspiciousness"]}, {"conceptId": "C161752", "definition": "Brief Psychiatric Rating Scale 1988 Version - Hallucinatory behavior.", "preferredTerm": "BPRS 1988 Version - Hallucinatory Behavior", "submissionValue": "BPRS0112", "synonyms": ["BPRS01-Hallucinatory Behavior"]}, {"conceptId": "C161753", "definition": "Brief Psychiatric Rating Scale 1988 Version - Motor retardation.", "preferredTerm": "BPRS 1988 Version - Motor Retardation", "submissionValue": "BPRS0113", "synonyms": ["BPRS01-Motor Retardation"]}, {"conceptId": "C161754", "definition": "Brief Psychiatric Rating Scale 1988 Version - Uncooperativeness.", "preferredTerm": "BPRS 1988 Version - Uncooperativeness", "submissionValue": "BPRS0114", "synonyms": ["BPRS01-Uncooperativeness"]}, {"conceptId": "C161755", "definition": "Brief Psychiatric Rating Scale 1988 Version - Unusual thought content.", "preferredTerm": "BPRS 1988 Version - Unusual Thought Content", "submissionValue": "BPRS0115", "synonyms": ["BPRS01-Unusual Thought Content"]}, {"conceptId": "C161756", "definition": "Brief Psychiatric Rating Scale 1988 Version - Blunted affect.", "preferredTerm": "BPRS 1988 Version - Blunted Affect", "submissionValue": "BPRS0116", "synonyms": ["BPRS01-Blunted Affect"]}, {"conceptId": "C161757", "definition": "Brief Psychiatric Rating Scale 1988 Version - Excitement.", "preferredTerm": "BPRS 1988 Version - Excitement", "submissionValue": "BPRS0117", "synonyms": ["BPRS01-Excitement"]}, {"conceptId": "C161758", "definition": "Brief Psychiatric Rating Scale 1988 Version - Disorientation.", "preferredTerm": "BPRS 1988 Version - Disorientation", "submissionValue": "BPRS0118", "synonyms": ["BPRS01-Disorientation"]}, {"conceptId": "C161759", "definition": "Brief Psychiatric Rating Scale 1988 Version - Total score.", "preferredTerm": "BPRS 1988 Version - Total Score", "submissionValue": "BPRS0119", "synonyms": ["BPRS01-Total Score"]}]}