{"_links": {"parentPackage": {"href": "/mdr/ct/packages/sdtmct-2020-12-18", "title": "SDTM Controlled Terminology Package 44 Effective 2020-12-18", "type": "Terminology"}, "priorVersion": {"href": "/mdr/ct/packages/sdtmct-2020-11-06/codelists/C163393", "title": "CDISC Questionnaire HCS Test Code Terminology", "type": "Code List"}, "rootItem": {"href": "/mdr/root/ct/sdtmct/codelists/C163393", "title": "Version-agnostic anchor resource for codelist C163393", "type": "Root Value Domain"}, "self": {"href": "/mdr/ct/packages/sdtmct-2020-12-18/codelists/C163393", "title": "CDISC Questionnaire HCS Test Code Terminology", "type": "Code List"}}, "conceptId": "C163393", "definition": "Hypoglycemic Confidence Scale test code.", "extensible": "false", "name": "Hypoglycemic Confidence Scale Questionnaire Test Code", "preferredTerm": "CDISC Questionnaire HCS Test Code Terminology", "submissionValue": "HCS01TC", "synonyms": ["Hypoglycemic Confidence Scale Questionnaire Test Code"], "terms": [{"conceptId": "C163860", "definition": "Hypoglycemic Confidence Scale - How confident are you that you can stay safe from serious problems with hypoglycemia: When you are exercising?", "preferredTerm": "HCS - When You Are Exercising", "submissionValue": "HCS0101", "synonyms": ["HCS01-When You Are Exercising"]}, {"conceptId": "C163861", "definition": "Hypoglycemic Confidence Scale - How confident are you that you can stay safe from serious problems with hypoglycemia: When you are sleeping?", "preferredTerm": "HCS - When You Are Sleeping", "submissionValue": "HCS0102", "synonyms": ["HCS01-When You Are Sleeping"]}, {"conceptId": "C163862", "definition": "Hypoglycemic Confidence Scale - How confident are you that you can stay safe from serious problems with hypoglycemia: When you are driving?", "preferredTerm": "HCS - When You Are Driving", "submissionValue": "HCS0103", "synonyms": ["HCS01-When You Are Driving"]}, {"conceptId": "C163863", "definition": "Hypoglycemic Confidence Scale - How confident are you that you can stay safe from serious problems with hypoglycemia: When you are in social situations?", "preferredTerm": "HCS - When You Are in Social Situations", "submissionValue": "HCS0104", "synonyms": ["HCS01-When You Are in Social Situations"]}, {"conceptId": "C163864", "definition": "Hypoglycemic Confidence Scale - How confident are you that you can stay safe from serious problems with hypoglycemia: When you are alone?", "preferredTerm": "HCS - When You Are Alone", "submissionValue": "HCS0105", "synonyms": ["HCS01-When You Are Alone"]}, {"conceptId": "C163865", "definition": "Hypoglycemic Confidence Scale - In general, how confident are you that you can: Avoid serious problems due to hypoglycemia?", "preferredTerm": "HCS - Avoid Serious Problems", "submissionValue": "HCS0106", "synonyms": ["HCS01-Avoid Serious Problems"]}, {"conceptId": "C163866", "definition": "Hypoglycemic Confidence Scale - In general, how confident are you that you can: Catch and respond to hypoglycemia before your blood sugars get too low?", "preferredTerm": "HCS - Catch Before Sugars Get Too Low", "submissionValue": "HCS0107", "synonyms": ["HCS01-Catch Before Sugars Get Too Low"]}, {"conceptId": "C163867", "definition": "Hypoglycemic Confidence Scale - In general, how confident are you that you can: Continue to do the things you really want to do in your life, despite the risks of hypoglycemia?", "preferredTerm": "HCS - Continue to Do Things Really Want", "submissionValue": "HCS0108", "synonyms": ["HCS01-Continue to Do Things Really Want"]}, {"conceptId": "C163868", "definition": "Hypoglycemic Confidence Scale - If you have a spouse or partner: What is your best guess about how confident your spouse or partner feels about your ability to avoid serious problems due to hypoglycemia?", "preferredTerm": "HCS - Your Ability to Avoid Problems", "submissionValue": "HCS0109", "synonyms": ["HCS01-Your Ability to Avoid Problems"]}, {"conceptId": "C163869", "definition": "Hypoglycemic Confidence Scale - Mean HCS score.", "preferredTerm": "HCS - Mean HCS Score", "submissionValue": "HCS0110", "synonyms": ["HCS01-Mean HCS Score"]}]}