{"_links": {"parentPackage": {"href": "/mdr/ct/packages/sdtmct-2020-12-18", "title": "SDTM Controlled Terminology Package 44 Effective 2020-12-18", "type": "Terminology"}, "priorVersion": {"href": "/mdr/ct/packages/sdtmct-2020-11-06/codelists/C170445", "title": "CDISC SDTM Integumentary System Test Code Terminology", "type": "Code List"}, "rootItem": {"href": "/mdr/root/ct/sdtmct/codelists/C170445", "title": "Version-agnostic anchor resource for codelist C170445", "type": "Root Value Domain"}, "self": {"href": "/mdr/ct/packages/sdtmct-2020-12-18/codelists/C170445", "title": "CDISC SDTM Integumentary System Test Code Terminology", "type": "Code List"}}, "conceptId": "C170445", "definition": "A terminology codelist to describe the test codes for examinations of the integumentary system.", "extensible": "true", "name": "Integumentary System Test Code", "preferredTerm": "CDISC SDTM Integumentary System Test Code Terminology", "submissionValue": "INTEGUCD", "synonyms": ["Integumentary System Test Code"], "terms": [{"conceptId": "C170575", "definition": "A relative measurement (ratio or percentage) of the affected body surface area to total body surface area.", "preferredTerm": "Affected Body Surface Area to Total Body Surface Area Ratio Measurement", "submissionValue": "ABSABSA", "synonyms": ["Affected BSA/Total BSA", "Affected Body Surface Area/Total Body Surface Area"]}]}