{"_links": {"parentPackage": {"href": "/mdr/ct/packages/sdtmct-2020-12-18", "title": "SDTM Controlled Terminology Package 44 Effective 2020-12-18", "type": "Terminology"}, "priorVersion": {"href": "/mdr/ct/packages/sdtmct-2020-11-06/codelists/C170529", "title": "CDISC Clinical Classification KDIGO-AKI Test Code Terminology", "type": "Code List"}, "rootItem": {"href": "/mdr/root/ct/sdtmct/codelists/C170529", "title": "Version-agnostic anchor resource for codelist C170529", "type": "Root Value Domain"}, "self": {"href": "/mdr/ct/packages/sdtmct-2020-12-18/codelists/C170529", "title": "CDISC Clinical Classification KDIGO-AKI Test Code Terminology", "type": "Code List"}}, "conceptId": "C170529", "definition": "Kidney Disease Improving Global Outcomes Staging For Acute Kidney Injury test code.", "extensible": "false", "name": "Kidney Disease Improving Global Outcomes Staging For Acute Kidney Injury Clinical Classification Test Code", "preferredTerm": "CDISC Clinical Classification KDIGO-AKI Test Code Terminology", "submissionValue": "KDIGO1TC", "synonyms": ["Kidney Disease Improving Global Outcomes Staging For Acute Kidney Injury Clinical Classification Test Code"], "terms": [{"conceptId": "C170692", "definition": "Kidney Disease: Improving Global Outcomes - KDIGO AKI stage.", "preferredTerm": "KDIGO-AKI - KDIGO AKI Stage", "submissionValue": "KDIGO101", "synonyms": ["KDIGO1-KDIGO AKI Stage"]}]}