{"_links": {"parentPackage": {"href": "/mdr/ct/packages/sdtmct-2020-12-18", "title": "SDTM Controlled Terminology Package 44 Effective 2020-12-18", "type": "Terminology"}, "priorVersion": {"href": "/mdr/ct/packages/sdtmct-2020-11-06/codelists/C171444", "title": "CDISC SDTM Health Care Encounters Dictionary Derived Term Terminology", "type": "Code List"}, "rootItem": {"href": "/mdr/root/ct/sdtmct/codelists/C171444", "title": "Version-agnostic anchor resource for codelist C171444", "type": "Root Value Domain"}, "self": {"href": "/mdr/ct/packages/sdtmct-2020-12-18/codelists/C171444", "title": "CDISC SDTM Health Care Encounters Dictionary Derived Term Terminology", "type": "Code List"}}, "conceptId": "C171444", "definition": "A terminology codelist based on the standardized or preprinted name of the healthcare encounter that occurs.", "extensible": "true", "name": "Health Care Encounters Dictionary Derived Term", "preferredTerm": "CDISC SDTM Health Care Encounters Dictionary Derived Term Terminology", "submissionValue": "HODECOD", "synonyms": ["Health Care Encounters Dictionary Derived Term"], "terms": [{"conceptId": "C171501", "definition": "The subject or patient has been admitted as an outpatient to a cardiac catheterization laboratory.", "preferredTerm": "Cardiac Catheterization Laboratory Visit", "submissionValue": "CARDIAC CATHETERIZATION LABORATORY VISIT"}, {"conceptId": "C171502", "definition": "The subject or patient has been admitted as an inpatient to a cardiac intensive care unit.", "preferredTerm": "Cardiac Intensive Care Unit Stay", "submissionValue": "CARDIAC INTENSIVE CARE UNIT STAY", "synonyms": ["CICU Stay", "Coronary Intensive Care Unit Stay"]}, {"conceptId": "C176294", "definition": "The subject or patient has been admitted as an outpatient to an emergency room.", "preferredTerm": "Emergency Room Visit", "submissionValue": "EMERGENCY ROOM VISIT"}, {"conceptId": "C171509", "definition": "The subject or patient has been admitted as an inpatient to a general medical unit of a hospital.", "preferredTerm": "General Ward Stay", "submissionValue": "GENERAL WARD STAY", "synonyms": ["General Medical Unit Stay"]}, {"conceptId": "C171453", "definition": "The subject or patient has been admitted as an inpatient to a hospital.", "preferredTerm": "Hospital Stay", "submissionValue": "HOSPITAL STAY", "synonyms": ["Inpatient Hospital Stay", "Inpatient Hospitalization"]}, {"conceptId": "C171454", "definition": "The subject or patient has been admitted as an inpatient to a intensive care unit.", "preferredTerm": "Intensive Care Unit Stay", "submissionValue": "INTENSIVE CARE UNIT STAY", "synonyms": ["ICU Stay"]}, {"conceptId": "C171517", "definition": "The subject or patient has been admitted as an inpatient to a neuro-intensive care unit.", "preferredTerm": "Neuro Intensive Care Unit Stay", "submissionValue": "NEURO INTENSIVE CARE UNIT STAY", "synonyms": ["Neuro-ICU Stay", "Neuro-Trauma ICU Stay"]}, {"conceptId": "C171518", "definition": "The subject or patient has been admitted as an inpatient to a nursing home.", "preferredTerm": "Nursing Home Stay", "submissionValue": "NURSING HOME STAY"}, {"conceptId": "C171520", "definition": "The subject or patient has been admitted as an outpatient to a physical therapy facility.", "preferredTerm": "Physical Therapy Facility Visit", "submissionValue": "PHYSICAL THERAPY FACILITY VISIT"}, {"conceptId": "C176292", "definition": "The subject or patient has interacted with a primary care physician in their office.", "preferredTerm": "Primary Care Physician's Office Visit", "submissionValue": "PRIMARY CARE PHYSICIAN'S OFFICE VISIT"}, {"conceptId": "C171522", "definition": "The subject or patient has been admitted as an inpatient to a psychiatric ward.", "preferredTerm": "Psychiatric Ward Stay", "submissionValue": "PSYCHIATRIC WARD STAY"}, {"conceptId": "C171523", "definition": "The subject or patient has been admitted as an inpatient to a rehabilitation facility.", "preferredTerm": "Rehabilitation Facility Stay", "submissionValue": "REHABILITATION FACILITY STAY"}, {"conceptId": "C171534", "definition": "The subject or patient has been admitted as an inpatient to a skilled nursing facility.", "preferredTerm": "Skilled Nursing Facility Stay", "submissionValue": "SKILLED NURSING FACILITY STAY"}, {"conceptId": "C176293", "definition": "The subject or patient has interacted with a specialty care physician in their office.", "preferredTerm": "Specialty Care Physician's Office Visit", "submissionValue": "SPECIALTY CARE PHYSICIAN'S OFFICE VISIT"}, {"conceptId": "C171535", "definition": "The subject or patient has been admitted as an inpatient to a surgical intensive care unit.", "preferredTerm": "Surgical Intensive Care Unit Stay", "submissionValue": "SURGICAL INTENSIVE CARE UNIT STAY", "synonyms": ["SICU Stay"]}, {"conceptId": "C171536", "definition": "The subject or patient has interacted with a healthcare professional remotely, via telecommunication.", "preferredTerm": "Telemedicine Visit", "submissionValue": "TELEHEALTH VISIT"}]}