{"_links": {"parentPackage": {"href": "/mdr/ct/packages/sdtmct-2020-12-18", "title": "SDTM Controlled Terminology Package 44 Effective 2020-12-18", "type": "Terminology"}, "priorVersion": {"href": "/mdr/ct/packages/sdtmct-2020-11-06/codelists/C171355", "title": "CDISC Clinical Classification NEWS2 Test Code Terminology", "type": "Code List"}, "rootItem": {"href": "/mdr/root/ct/sdtmct/codelists/C171355", "title": "Version-agnostic anchor resource for codelist C171355", "type": "Root Value Domain"}, "self": {"href": "/mdr/ct/packages/sdtmct-2020-12-18/codelists/C171355", "title": "CDISC Clinical Classification NEWS2 Test Code Terminology", "type": "Code List"}}, "conceptId": "C171355", "definition": "National Early Warning Score 2 test code.", "extensible": "false", "name": "National Early Warning Score 2 Clinical Classification Test Code", "preferredTerm": "CDISC Clinical Classification NEWS2 Test Code Terminology", "submissionValue": "NEWS1TC", "synonyms": ["National Early Warning Score 2 Clinical Classification Test Code"], "terms": [{"conceptId": "C171358", "definition": "National Early Warning Score 2 - Respirations.", "preferredTerm": "NEWS2 - Respirations", "submissionValue": "NEWS101", "synonyms": ["NEWS1-Respirations"]}, {"conceptId": "C171359", "definition": "National Early Warning Score 2 - SpO2 Scale 1 oxygen saturation.", "preferredTerm": "NEWS2 - Oxygen Saturation SpO2 Scale 1", "submissionValue": "NEWS102", "synonyms": ["NEWS1-Oxygen Saturation SpO2 Scale 1"]}, {"conceptId": "C171360", "definition": "National Early Warning Score 2 - SpO2 Scale 2 oxygen saturation.", "preferredTerm": "NEWS2 - Oxygen Saturation SpO2 Scale 2", "submissionValue": "NEWS103", "synonyms": ["NEWS1-Oxygen Saturation SpO2 Scale 2"]}, {"conceptId": "C171361", "definition": "National Early Warning Score 2 - Air or oxygen?", "preferredTerm": "NEWS2 - Air or Oxygen", "submissionValue": "NEWS104", "synonyms": ["NEWS1-Air or Oxygen"]}, {"conceptId": "C171362", "definition": "National Early Warning Score 2 - Air or oxygen: Device.", "preferredTerm": "NEWS2 - Air or Oxygen: Device", "submissionValue": "NEWS104A", "synonyms": ["NEWS1-Air or Oxygen: Device"]}, {"conceptId": "C171363", "definition": "National Early Warning Score 2 - Blood pressure. Score uses systolic BP only.", "preferredTerm": "NEWS2 - Systolic Blood Pressure", "submissionValue": "NEWS105", "synonyms": ["NEWS1-Systolic Blood Pressure"]}, {"conceptId": "C171364", "definition": "National Early Warning Score 2 - Pulse.", "preferredTerm": "NEWS2 - Pulse", "submissionValue": "NEWS106", "synonyms": ["NEWS1-Pulse"]}, {"conceptId": "C171365", "definition": "National Early Warning Score 2 - Consciousness.", "preferredTerm": "NEWS2 - Consciousness", "submissionValue": "NEWS107", "synonyms": ["NEWS1-Consciousness"]}, {"conceptId": "C171366", "definition": "National Early Warning Score 2 - Temperature.", "preferredTerm": "NEWS2 - Temperature", "submissionValue": "NEWS108", "synonyms": ["NEWS1-Temperature"]}, {"conceptId": "C171367", "definition": "National Early Warning Score 2 - NEWS total.", "preferredTerm": "NEWS2 - NEWS Total", "submissionValue": "NEWS109", "synonyms": ["NEWS1-NEWS Total"]}, {"conceptId": "C171368", "definition": "National Early Warning Score 2 - Monitoring frequency.", "preferredTerm": "NEWS2 - Monitoring Frequency", "submissionValue": "NEWS110", "synonyms": ["NEWS1-Monitoring Frequency"]}, {"conceptId": "C171369", "definition": "National Early Warning Score 2 - Escalation of care.", "preferredTerm": "NEWS2 - Escalation of Care", "submissionValue": "NEWS111", "synonyms": ["NEWS1-Escalation of Care"]}]}