{"_links": {"parentPackage": {"href": "/mdr/ct/packages/sdtmct-2020-12-18", "title": "SDTM Controlled Terminology Package 44 Effective 2020-12-18", "type": "Terminology"}, "priorVersion": {"href": "/mdr/ct/packages/sdtmct-2020-11-06/codelists/C172333", "title": "CDISC SDTM ECG Read Method Response Terminology", "type": "Code List"}, "rootItem": {"href": "/mdr/root/ct/sdtmct/codelists/C172333", "title": "Version-agnostic anchor resource for codelist C172333", "type": "Root Value Domain"}, "self": {"href": "/mdr/ct/packages/sdtmct-2020-12-18/codelists/C172333", "title": "CDISC SDTM ECG Read Method Response Terminology", "type": "Code List"}}, "conceptId": "C172333", "definition": "Terminology relevant to the method for how the ECG is read, with respect to how much human intervention is involved.", "extensible": "true", "name": "ECG Read Method Response", "preferredTerm": "CDISC SDTM ECG Read Method Response Terminology", "submissionValue": "EGRDMETH", "synonyms": ["ECG Read Method Response"], "terms": [{"conceptId": "C70669", "definition": "Of or related to a process performed without human intervention.", "preferredTerm": "Automatic", "submissionValue": "AUTOMATIC"}, {"conceptId": "C63513", "definition": "Of or related to a process performed by hand.", "preferredTerm": "Manual", "submissionValue": "MANUAL"}, {"conceptId": "C172484", "definition": "Of or related to a process performed using a combination of manual and automatic means.", "preferredTerm": "Semi-Automatic", "submissionValue": "SEMI-AUTOMATIC"}]}