{"_links": {"parentPackage": {"href": "/mdr/ct/packages/sdtmct-2020-12-18", "title": "SDTM Controlled Terminology Package 44 Effective 2020-12-18", "type": "Terminology"}, "priorVersion": {"href": "/mdr/ct/packages/sdtmct-2020-11-06/codelists/C174224", "title": "CDISC SDTM Crohn's Disease Findings About Test Name Terminology", "type": "Code List"}, "rootItem": {"href": "/mdr/root/ct/sdtmct/codelists/C174224", "title": "Version-agnostic anchor resource for codelist C174224", "type": "Root Value Domain"}, "self": {"href": "/mdr/ct/packages/sdtmct-2020-12-18/codelists/C174224", "title": "CDISC SDTM Crohn's Disease Findings About Test Name Terminology", "type": "Code List"}}, "conceptId": "C174224", "definition": "Terminology relevant to the test names that describe findings about Crohn's Disease event or intervention.", "extensible": "true", "name": "Crohn's Disease Findings About Test Name", "preferredTerm": "CDISC SDTM Crohn's Disease Findings About Test Name Terminology", "submissionValue": "CRFATS", "synonyms": ["Crohn's Disease Findings About Test Name"], "terms": [{"conceptId": "C174273", "definition": "The age at which illness-specific symptoms first began.", "preferredTerm": "Age Symptom Started", "submissionValue": "Age Symptoms Started", "synonyms": ["Age Symptoms Started"]}, {"conceptId": "C157443", "definition": "A description of the relative amount of tissue, blood vessel, or organ that has been removed.", "preferredTerm": "Extent of Resection", "submissionValue": "Extent of Resection", "synonyms": ["Extent of Resection"]}, {"conceptId": "C176280", "definition": "A determination of the final amount of a substance taken as a dose by a subject.", "preferredTerm": "Final Dose Amount", "submissionValue": "Final Dose Amount", "synonyms": ["Final Dose Amount"]}, {"conceptId": "C176281", "definition": "A determination of how often a subject takes a substance at the final dose amount.", "preferredTerm": "Frequency of Final Dose Amount", "submissionValue": "Frequency of Final Dose Amount", "synonyms": ["Frequency of Final Dose Amount"]}, {"conceptId": "C176279", "definition": "A determination of how often a subject takes a substance at the maximum dose amount.", "preferredTerm": "Frequency of Maximum Dose Amount", "submissionValue": "Frequency of Maximum Dose Amount", "synonyms": ["Frequency of Maximum Dose Amount"]}, {"conceptId": "C174279", "definition": "An indication as to whether the ileocecal junction was removed.", "preferredTerm": "Ileocecal Junction Removed Indicator", "submissionValue": "Ileocecal Junction Removed Indicator", "synonyms": ["Ileocecal Junction Removed Indicator"]}, {"conceptId": "C174278", "definition": "A measurement of the total length of the removed tissue, blood vessel, or organ.", "preferredTerm": "Length of Resection", "submissionValue": "Length of Resection", "synonyms": ["Length of Resection"]}, {"conceptId": "C176278", "definition": "A determination of the maximum amount of a substance taken as a dose by a subject.", "preferredTerm": "Maximum Dose Amount", "submissionValue": "Maximum Dose Amount", "synonyms": ["Maximum Dose Amount"]}, {"conceptId": "C174280", "definition": "The number of devices inserted into an individual.", "preferredTerm": "Number of Devices Inserted", "submissionValue": "Number of Devices Inserted", "synonyms": ["Number of Devices Inserted"]}, {"conceptId": "C176277", "definition": "A determination of the number of devices within a subject.", "preferredTerm": "Number of Devices Present", "submissionValue": "Number of Devices Present", "synonyms": ["Number of Devices Present"]}, {"conceptId": "C174277", "definition": "The number of lesions observed.", "preferredTerm": "Number of Lesions", "submissionValue": "Number of Lesions", "synonyms": ["Number of Lesions"]}, {"conceptId": "C174275", "definition": "The number of objects observed.", "preferredTerm": "Number of Objects", "submissionValue": "Number of Objects", "synonyms": ["Number of Objects"]}, {"conceptId": "C174228", "definition": "The number of procedures performed on or in an individual.", "preferredTerm": "Number of Procedures Performed", "submissionValue": "Number of Procedures Performed", "synonyms": ["Number of Procedures Performed"]}, {"conceptId": "C174274", "definition": "The number of anatomical strictures observed.", "preferredTerm": "Number of Strictures", "submissionValue": "Number of Strictures", "synonyms": ["Number of Stricture"]}, {"conceptId": "C176283", "definition": "An indication as to whether an individual has had a relapse after discontinuation of a substance due to dependence.", "preferredTerm": "Relapse after Discontinuation Because of Dependence Indicator", "submissionValue": "Relapse after Discon Dependent Indicator", "synonyms": ["Relapse after Discon Dependent Indicator", "Relapse after Discontinue Dependent Indicator"]}, {"conceptId": "C174281", "definition": "The signs and/or symptoms that result in the discontinuation of treatment or intervention.", "preferredTerm": "Sign or Symptom Leading to Discontinuation", "submissionValue": "Sign/Symptom Leading to Discontinuation", "synonyms": ["Sign/Symptom Leading to Discontinuation"]}, {"conceptId": "C176285", "definition": "An indication as to whether an individual has become dependent on a substance.", "preferredTerm": "Substance Dependence Indicator", "submissionValue": "Substance Dependence Indicator", "synonyms": ["Substance Dependence Indicator"]}, {"conceptId": "C174276", "definition": "The type of object observed.", "preferredTerm": "Type of Object", "submissionValue": "Type of Object", "synonyms": ["Type of Object"]}, {"conceptId": "C176284", "definition": "An indication as to whether an individual is unable to discontinue the use of a substance due to dependence.", "preferredTerm": "Unable to Discontinue Use Due to Dependence Indicator", "submissionValue": "Unable to Discon Dependent Indicator", "synonyms": ["Unable to Discon Dependent Indicator", "Unable to Discontinue Dependent Indicator"]}, {"conceptId": "C176282", "definition": "An indication as to whether an individual is incapable of reducing or tapering the amount of a substance taken due to dependence.", "preferredTerm": "Unable to Taper Dependent Indicator", "submissionValue": "Unable to Taper Dependent Indicator", "synonyms": ["Unable to Taper Dependent Indicator"]}]}