{"_links": {"parentPackage": {"href": "/mdr/ct/packages/sdtmct-2020-12-18", "title": "SDTM Controlled Terminology Package 44 Effective 2020-12-18", "type": "Terminology"}, "priorVersion": {"href": "/mdr/ct/packages/sdtmct-2020-11-06/codelists/C66727", "title": "CDISC SDTM Reason for Non-Completion Terminology", "type": "Code List"}, "rootItem": {"href": "/mdr/root/ct/sdtmct/codelists/C66727", "title": "Version-agnostic anchor resource for codelist C66727", "type": "Root Value Domain"}, "self": {"href": "/mdr/ct/packages/sdtmct-2020-12-18/codelists/C66727", "title": "CDISC SDTM Reason for Non-Completion Terminology", "type": "Code List"}}, "conceptId": "C66727", "definition": "The status of the subject's completion of the study or a segment of the study, or the reason the subject discontinued the study or segment of the study.", "extensible": "true", "name": "Completion/Reason for Non-Completion", "preferredTerm": "CDISC SDTM Reason for Non-Completion Terminology", "submissionValue": "NCOMPLT", "synonyms": ["Completion/Reason for Non-Completion"], "terms": [{"conceptId": "C41331", "definition": "Any untoward medical occurrence in a patient or clinical investigation subject administered a pharmaceutical product and which does not necessarily have a causal relationship with this treatment. An adverse event (AE) can therefore be any unintended sign (including an abnormal laboratory finding), symptom, or disease temporally associated with the use of a medicinal (investigational) product, whether or not related to the medicinal (investigational) product. NOTE: For further information, see the ICH Guideline for Clinical Safety Data Management: Definitions and Standards for Expedited Reporting. [Modified from ICH E2A] Synonyms: side effect, adverse experience. See also serious adverse event, serious adverse experience. (CDISC glossary)", "preferredTerm": "Adverse Event", "submissionValue": "ADVERSE EVENT"}, {"conceptId": "C172573", "definition": "An indication that an approved drug is available for use for the disease indication.", "preferredTerm": "Approved Drug Available For Indication", "submissionValue": "APPROVED DRUG AVAILABLE FOR INDICATION"}, {"conceptId": "C25250", "definition": "To possess every necessary or normal part or component or step; having come or been brought to a conclusion. (NCI)", "preferredTerm": "Complete", "submissionValue": "COMPLETED"}, {"conceptId": "C28554", "definition": "The absence of life or state of being dead. (NCI)", "preferredTerm": "Dead", "submissionValue": "DEATH", "synonyms": ["Died"]}, {"conceptId": "C38155", "definition": "The return of a disease after a period of remission.", "preferredTerm": "Recurrent Disease", "submissionValue": "DISEASE RELAPSE", "synonyms": ["Recurrent Disease"]}, {"conceptId": "C139236", "definition": "An indication that the subject has not been able to meet protocol-defined continuation criteria and will not continue to participate in the clinical trial.", "preferredTerm": "Failure To Meet Continuation Criteria", "submissionValue": "FAILURE TO MEET CONTINUATION CRITERIA"}, {"conceptId": "C105448", "definition": "An indication that the subject has been unable to fulfill/satisfy the criteria required for assignment into a randomized group.", "preferredTerm": "Failure to Meet Randomization Criteria", "submissionValue": "FAILURE TO MEET RANDOMIZATION CRITERIA"}, {"conceptId": "C48226", "definition": "The lack of expected or desired effect related to a therapy. (NCI)", "preferredTerm": "Lack of Efficacy", "submissionValue": "LACK OF EFFICACY"}, {"conceptId": "C176343", "definition": "A problem with some logistical aspect of a clinical study, either on the part of the participant or the site.", "preferredTerm": "Logistical Problem With Clinical Study", "submissionValue": "LOGISTICAL PROBLEM"}, {"conceptId": "C48227", "definition": "The loss or lack of continuation of a subject to follow-up.", "preferredTerm": "Lost To Follow-Up", "submissionValue": "LOST TO FOLLOW-UP"}, {"conceptId": "C150884", "definition": "An indication that the subject met inclusion/exclusion criteria but was not needed in the trial.", "preferredTerm": "Subject Met Eligibility Criteria But Was Not Needed", "submissionValue": "MET ELIGIBILITY CRITERIA BUT NOT NEEDED", "synonyms": ["Passed Screening But Not Needed", "Qualified But Not Needed", "Reserve, Not Used"]}, {"conceptId": "C172572", "definition": "An indication that a subject has not ever been dosed with the study treatment or investigational product.", "preferredTerm": "Never Dosed", "submissionValue": "NEVER DOSED"}, {"conceptId": "C156551", "definition": "An indication that a treatment or therapy was changed or discontinued because it is no longer clinically beneficial to the subject or patient, based on the primary therapeutic objective for which it is being administered and assessed. (Trial Design and Objectives for Castration-Resistant Prostate Cancer: Updated Recommendations From the Prostate Cancer Clinical Trials Working Group 3. Scher HI, Morris MJ, Stadler WM, et al.; Prostate Cancer Clinical Trials Working Group 3. J Clin Oncol. 2016 Apr 20;34(12):1402-18.)", "preferredTerm": "No Longer Clinically Benefiting", "submissionValue": "NO LONGER CLINICALLY BENEFITING", "synonyms": ["NLCB"]}, {"conceptId": "C139240", "definition": "An indication that a subject has not followed the instructions related to a device that is not under study.", "preferredTerm": "Non-Compliance With Non-Study Device", "submissionValue": "NON-COMPLIANCE WITH NON-STUDY DEVICE"}, {"conceptId": "C139241", "definition": "An indication that a subject has not followed the instructions related to a device under study.", "preferredTerm": "Non-Compliance With Study Device", "submissionValue": "NON-COMPLIANCE WITH STUDY DEVICE"}, {"conceptId": "C49631", "definition": "An indication that a subject has not agreed with or followed the instructions related to the study medication. (NCI)", "preferredTerm": "Non-Compliance With Study Drug", "submissionValue": "NON-COMPLIANCE WITH STUDY DRUG"}, {"conceptId": "C161411", "definition": "An indication that a subject has not followed the schedule of study activities.", "preferredTerm": "Non-Compliance With Study Schedule", "submissionValue": "NON-COMPLIANCE WITH STUDY SCHEDULE"}, {"conceptId": "C17649", "definition": "Different than the one(s) previously specified or mentioned. (NCI)", "preferredTerm": "Other", "submissionValue": "OTHER", "synonyms": ["Other"]}, {"conceptId": "C48250", "definition": "A position, opinion or judgment reached after consideration by a physician with reference to subject. (NCI)", "preferredTerm": "Physician Decision", "submissionValue": "PHYSICIAN DECISION"}, {"conceptId": "C25742", "definition": "Pregnancy is the state or condition of having a developing embryo or fetus in the body (uterus), after union of an ovum and spermatozoon, during the period from conception to birth. (NCI)", "preferredTerm": "Pregnancy", "submissionValue": "PREGNANCY"}, {"conceptId": "C35571", "definition": "A disease process that is increasing in extent or severity. (NCI)", "preferredTerm": "Progressive Disease", "submissionValue": "PROGRESSIVE DISEASE", "synonyms": ["Disease Progression", "Progressive Disease"]}, {"conceptId": "C50996", "definition": "A variation from processes or procedures defined in a protocol. Deviations usually do not preclude the overall evaluability of subject data for either efficacy or safety, and are often acknowledged and accepted in advance by the sponsor. NOTE: Good clinical practice recommends that deviations be summarized by site and by category as part of the report of study results so that the possible importance of the deviations to the findings of the study can be assessed. Compare to protocol violation. [See ICH E3] (CDISC Glossary)", "preferredTerm": "Protocol Deviation", "submissionValue": "PROTOCOL DEVIATION"}, {"conceptId": "C142185", "definition": "A significant departure from processes or procedures that were required by the protocol. Violations often result in data that are not deemed evaluable for a per-protocol analysis, and may require that the subject(s) who violate the protocol be discontinued from the study. Compare to protocol deviation. (CDISC Glossary)", "preferredTerm": "Protocol Violation", "submissionValue": "PROTOCOL VIOLATION"}, {"conceptId": "C142349", "definition": "An indication that the patient has met one or multiple protocol-specified withdrawal criteria and has been removed from the study or from one or more segments of the study.", "preferredTerm": "Protocol-Specified Withdrawal Criterion Met", "submissionValue": "PROTOCOL-SPECIFIED WITHDRAWAL CRITERION MET"}, {"conceptId": "C139237", "definition": "An indication that the subject was randomized but should not have been.", "preferredTerm": "Randomized By Mistake", "submissionValue": "RANDOMIZED BY MISTAKE"}, {"conceptId": "C139238", "definition": "An indication that the subject was randomized but should not have been and study treatment was received in error.", "preferredTerm": "Randomized By Mistake With Study Treatment", "submissionValue": "RANDOMIZED BY MISTAKE WITH STUDY TREATMENT"}, {"conceptId": "C139239", "definition": "An indication that the subject was randomized but should not have been however no study treatment was received.", "preferredTerm": "Randomized By Mistake Without Study Treatment", "submissionValue": "RANDOMIZED BY MISTAKE WITHOUT STUDY TREATMENT"}, {"conceptId": "C25746", "definition": "A healing process and/or an outcome implying relative health. The term is typically used in the context of direct and indirect effects of sickness or injury. (NCI)", "preferredTerm": "Recovery", "submissionValue": "RECOVERY"}, {"conceptId": "C49628", "definition": "The potential subject who does not meet eligibility criteria during the screening period.", "preferredTerm": "Trial Screen Failure", "submissionValue": "SCREEN FAILURE"}, {"conceptId": "C166074", "definition": "An indication that the subject did not complete the screening process.", "preferredTerm": "Screening Not Completed", "submissionValue": "SCREENING NOT COMPLETED"}, {"conceptId": "C106576", "definition": "An indication that a clinical study was stopped at a particular site by its sponsor. (NCI)", "preferredTerm": "Trial Site Terminated by Sponsor", "submissionValue": "SITE TERMINATED BY SPONSOR"}, {"conceptId": "C161410", "definition": "An indication that the study subject was removed from the study or from one or more segments of the study at the sponsor's request.", "preferredTerm": "Subject Removed at Sponsor Request", "submissionValue": "SPONSOR REQUEST"}, {"conceptId": "C49632", "definition": "An indication that a clinical study was stopped by its sponsor. (NCI)", "preferredTerm": "Study Terminated By Sponsor", "submissionValue": "STUDY TERMINATED BY SPONSOR"}, {"conceptId": "C49633", "definition": "A problem with some technical aspect of a clinical study, usually related to an instrument. (NCI)", "preferredTerm": "Technical Problem", "submissionValue": "TECHNICAL PROBLEMS"}, {"conceptId": "C102355", "definition": "An indication that a study participant has been removed from the study or from one or more segments of the study by the parent or legal guardian.", "preferredTerm": "Study Subject Withdrawal by Parent or Guardian", "submissionValue": "WITHDRAWAL BY PARENT/GUARDIAN"}, {"conceptId": "C49634", "definition": "An indication that a study participant has removed themself from the study or from one or more segments of the study.", "preferredTerm": "Withdrawal by Subject", "submissionValue": "WITHDRAWAL BY SUBJECT"}, {"conceptId": "C176342", "definition": "An indication that the consent to participate in the study or one or more segments of the study has been revoked.", "preferredTerm": "Study Consent Withdrawn", "submissionValue": "WITHDRAWAL OF CONSENT"}]}