{"_links": {"parentPackage": {"href": "/mdr/ct/packages/sdtmct-2020-12-18", "title": "SDTM Controlled Terminology Package 44 Effective 2020-12-18", "type": "Terminology"}, "priorVersion": {"href": "/mdr/ct/packages/sdtmct-2020-11-06/codelists/C99075", "title": "CDISC SDTM Portion/Totality Terminology", "type": "Code List"}, "rootItem": {"href": "/mdr/root/ct/sdtmct/codelists/C99075", "title": "Version-agnostic anchor resource for codelist C99075", "type": "Root Value Domain"}, "self": {"href": "/mdr/ct/packages/sdtmct-2020-12-18/codelists/C99075", "title": "CDISC SDTM Portion/Totality Terminology", "type": "Code List"}}, "conceptId": "C99075", "definition": "Qualifier for anatomical location or specimen further detailing the portion or totality, which means arrangement of, or apportioning of an entity.", "extensible": "true", "name": "Portion/Totality", "preferredTerm": "CDISC SDTM Portion/Totality Terminology", "submissionValue": "PORTOT", "synonyms": ["Portion/Totality"], "terms": [{"conceptId": "C64916", "definition": "Being or representing the total number of individual entities.", "preferredTerm": "All", "submissionValue": "ALL"}, {"conceptId": "C25326", "definition": "Being or representing the complete extent of a single entity.", "preferredTerm": "Whole", "submissionValue": "ENTIRE", "synonyms": ["Whole"]}, {"conceptId": "C81009", "definition": "Of or pertaining to one half of a whole.", "preferredTerm": "Half", "submissionValue": "HEMI"}, {"conceptId": "C17648", "definition": "More than one. (NCI)", "preferredTerm": "Multiple", "submissionValue": "MULTIPLE"}, {"conceptId": "C25378", "definition": "Being or representing an incomplete extent of a single entity.", "preferredTerm": "Partial", "submissionValue": "PARTIAL"}, {"conceptId": "C45312", "definition": "One of the parts into which something is divided.", "preferredTerm": "Segment", "submissionValue": "SEGMENT"}, {"conceptId": "C48440", "definition": "One.", "preferredTerm": "Single", "submissionValue": "SINGLE"}]}