{"_links": {"parentPackage": {"href": "/mdr/ct/packages/adamct-2015-12-18", "title": "ADaM Controlled Terminology Package 24 Effective 2015-12-18", "type": "Terminology"}, "priorVersion": {"href": "/mdr/ct/packages/adamct-2014-09-26/codelists/C81224", "title": "CDISC ADaM Derivation Type Terminology", "type": "Code List"}, "rootItem": {"href": "/mdr/root/ct/adamct/codelists/C81224", "title": "Version-agnostic anchor resource for codelist C81224", "type": "Root Value Domain"}, "self": {"href": "/mdr/ct/packages/adamct-2015-12-18/codelists/C81224", "title": "CDISC ADaM Derivation Type Terminology", "type": "Code List"}}, "conceptId": "C81224", "definition": "Derivation Type: Analysis value derivation method.", "extensible": "true", "name": "Derivation Type", "preferredTerm": "CDISC ADaM Derivation Type Terminology", "submissionValue": "DTYPE", "synonyms": ["Derivation Type"], "terms": [{"conceptId": "C81209", "definition": "Average: A data derivation technique which calculates a subject's average value over a defined set of records.", "preferredTerm": "Average of Value Derivation Technique", "submissionValue": "AVERAGE"}, {"conceptId": "C92225", "definition": "Best Case: A data imputation technique which populates missing values with the best possible outcome.", "preferredTerm": "Best Case Imputation Technique", "submissionValue": "BC"}, {"conceptId": "C81201", "definition": "Baseline Observation Carried Forward: A data imputation technique which populates missing values with the subject's nonmissing baseline observation.", "preferredTerm": "Baseline Observation Carried Forward Imputation Technique", "submissionValue": "BLOCF"}, {"conceptId": "C92226", "definition": "Best Observation Carried Forward: A data imputation technique which populates missing values with the subject's best-case nonmissing value.", "preferredTerm": "Best Observation Carried Forward Imputation Technique", "submissionValue": "BOCF"}, {"conceptId": "C82866", "definition": "Endpoint: A data derivation technique which calculates a subject's analysis end point value.", "preferredTerm": "Endpoint Value Derivation Technique", "submissionValue": "ENDPOINT"}, {"conceptId": "C81208", "definition": "Interpolation: A method of imputation involving a missing value that is between known values and is estimated by a function of those known values.", "preferredTerm": "Interpolation Imputation Technique", "submissionValue": "INTERP"}, {"conceptId": "C81198", "definition": "Last Observation Carried Forward: A data imputation technique which populates missing values with the subject's previous nonmissing value.", "preferredTerm": "Last Observation Carried Forward Imputation Technique", "submissionValue": "LOCF"}, {"conceptId": "C82868", "definition": "Maximum: A data derivation technique which calculates a subject's maximum value over a defined set of records.", "preferredTerm": "Maximum Value Derivation Technique", "submissionValue": "MAXIMUM"}, {"conceptId": "C82867", "definition": "Minimum: A data derivation technique which calculates a subject's minimum value over a defined set of records.", "preferredTerm": "Minimum Value Derivation Technique", "submissionValue": "MINIMUM"}, {"conceptId": "C53331", "definition": "Maximum Likelihood: A data imputation technique which populates missing values with estimates that maximize the probability of observing what has in fact been observed.", "preferredTerm": "Maximum Likelihood Estimation", "submissionValue": "ML"}, {"conceptId": "C81204", "definition": "Mean of Other Group: A data imputation technique which populates missing values with the mean value from a comparator or reference group.", "preferredTerm": "Mean of Other Group Imputation Technique", "submissionValue": "MOTH"}, {"conceptId": "C81207", "definition": "Mean Observed Value in a Group: A data imputation technique which populates missing values with the mean value observed in a group of subjects.", "preferredTerm": "Mean Observed Value in a Group Imputation Technique", "submissionValue": "MOV"}, {"conceptId": "C81205", "definition": "Penultimate Observation Carried Forward: A data imputation technique which populates missing values with the subject's next-to-last nonmissing value.", "preferredTerm": "Penultimate Observation Carried Forward Imputation Technique", "submissionValue": "POCF"}, {"conceptId": "C81200", "definition": "Screening Observation Carried Forward: A data imputation technique which populates missing values with the subject's nonmissing screening observation.", "preferredTerm": "Screening Observation Carried Forward Imputation Technique", "submissionValue": "SOCF"}, {"conceptId": "C81203", "definition": "Worst Case: A data imputation technique which populates missing values with the worst possible outcome.", "preferredTerm": "Worst Case Imputation Technique", "submissionValue": "WC"}, {"conceptId": "C81199", "definition": "Worst Observation Carried Forward: A data imputation technique which populates missing values with the subject's worst-case nonmissing value.", "preferredTerm": "Worst Observation Carried Forward Imputation Technique", "submissionValue": "WOCF"}, {"conceptId": "C81206", "definition": "Worst Observed Value in a Group: A data imputation technique which populates missing values with the worst value observed in a group of subjects.", "preferredTerm": "Worst Observed Value in a Group Imputation Technique", "submissionValue": "WOV"}]}