{"_links": {"parentPackage": {"href": "/mdr/ct/packages/protocolct-2022-03-25", "title": "Protocol Controlled Terminology Package 49 Effective 2022-03-25", "type": "Terminology"}, "priorVersion": {"href": "/mdr/ct/packages/protocolct-2021-12-17/codelists/C184333", "title": "CDISC Protocol Reference Attribute Terminology", "type": "Code List"}, "rootItem": {"href": "/mdr/root/ct/protocolct/codelists/C184333", "title": "Version-agnostic anchor resource for codelist C184333", "type": "Root Value Domain"}, "self": {"href": "/mdr/ct/packages/protocolct-2022-03-25/codelists/C184333", "title": "CDISC Protocol Reference Attribute Terminology", "type": "Code List"}}, "conceptId": "C184333", "definition": "A terminology value set relevant to the attributes of the reference.", "name": "Reference Attribute Terminology", "preferredTerm": "CDISC Protocol Reference Attribute Terminology", "submissionValue": "Reference Attribute Terminology", "synonyms": ["Reference Attribute Terminology"], "terms": [{"conceptId": "C41196", "definition": "A reference to an authoritative source.", "preferredTerm": "Citation", "submissionValue": "Citation"}]}