{"_links": {"parentPackage": {"href": "/mdr/ct/packages/sdtmct-2019-09-27", "title": "SDTM Controlled Terminology Package 39 Effective 2019-09-27", "type": "Terminology"}, "priorVersion": {"href": "/mdr/ct/packages/sdtmct-2019-06-28/codelists/C100143", "title": "CDISC Questionnaire NPI Test Name Terminology", "type": "Code List"}, "rootItem": {"href": "/mdr/root/ct/sdtmct/codelists/C100143", "title": "Version-agnostic anchor resource for codelist C100143", "type": "Root Value Domain"}, "self": {"href": "/mdr/ct/packages/sdtmct-2019-09-27/codelists/C100143", "title": "CDISC Questionnaire NPI Test Name Terminology", "type": "Code List"}}, "conceptId": "C100143", "definition": "The Neuropsychiatric Inventory test name.", "extensible": "false", "name": "Neuropsychiatric Inventory Questionnaire Test Name", "preferredTerm": "CDISC Questionnaire NPI Test Name Terminology", "submissionValue": "NPI1TN", "synonyms": ["Neuropsychiatric Inventory Questionnaire Test Name"], "terms": [{"conceptId": "C103631", "definition": "Neuropsychiatric Inventory - How emotionally distressing do you find this behavior?", "preferredTerm": "NPI - Aberrant Motor Behavior Distress", "submissionValue": "NPI1-Aberrant Motor Behavior Distress", "synonyms": ["NPI1-Aberrant Motor Behavior Distress"]}, {"conceptId": "C103629", "definition": "Neuropsychiatric Inventory - Frequency of the aberrant motor behavior.", "preferredTerm": "NPI - Aberrant Motor Behavior Frequency", "submissionValue": "NPI1-Aberrant Motor Behavior Frequency", "synonyms": ["NPI1-Aberrant Motor Behavior Frequency"]}, {"conceptId": "C112478", "definition": "Neuropsychiatric Inventory - Aberrant Motor Behavior: (frequency score x severity score).", "preferredTerm": "NPI - Aberrant Motor Behavior FxS Score", "submissionValue": "NPI1-Aberrant Motor Behavior FxS Score", "synonyms": ["NPI1-Aberrant Motor Behavior FxS Score"]}, {"conceptId": "C103630", "definition": "Neuropsychiatric Inventory - Severity of the aberrant motor behavior.", "preferredTerm": "NPI - Aberrant Motor Behavior Severity", "submissionValue": "NPI1-Aberrant Motor Behavior Severity", "synonyms": ["NPI1-Aberrant Motor Behavior Severity"]}, {"conceptId": "C100683", "definition": "Neuropsychiatric Inventory - Does the patient seem to act impulsively without thinking? Does he/she do or say things that are not usually done or said in public? Does he/she do things that are embarrassing to you or others?", "preferredTerm": "NPI - Seem to Act Impulsively Without Thinking", "submissionValue": "NPI1-Act Impulsively", "synonyms": ["NPI1-Act Impulsively"]}, {"conceptId": "C100684", "definition": "Neuropsychiatric Inventory - Does the patient act impulsively without appearing to consider the consequences?", "preferredTerm": "NPI - Act Impulsively without Appearing to Consider the Consequences", "submissionValue": "NPI1-Act Impulsively without Care", "synonyms": ["NPI1-Act Impulsively without Care"]}, {"conceptId": "C103610", "definition": "Neuropsychiatric Inventory - How emotionally distressing do you find this behavior?", "preferredTerm": "NPI - Agitation/Aggression Distress", "submissionValue": "NPI1-Agitation/Aggression Distress", "synonyms": ["NPI1-Agitation/Aggression Distress"]}, {"conceptId": "C103608", "definition": "Neuropsychiatric Inventory - Frequency of the agitation/aggression.", "preferredTerm": "NPI - Agitation/Aggression Frequency", "submissionValue": "NPI1-Agitation/Aggression Frequency", "synonyms": ["NPI1-Agitation/Aggression Frequency"]}, {"conceptId": "C112471", "definition": "Neuropsychiatric Inventory - Agitation/Aggression: (frequency score x severity score).", "preferredTerm": "NPI - Agitation/Aggression FxS Score", "submissionValue": "NPI1-Agitation/Aggression FxS Score", "synonyms": ["NPI1-Agitation/Aggression FxS Score"]}, {"conceptId": "C103609", "definition": "Neuropsychiatric Inventory - Severity of the agitation/aggression.", "preferredTerm": "NPI - Agitation/Aggression Severity", "submissionValue": "NPI1-Agitation/Aggression Severity", "synonyms": ["NPI1-Agitation/Aggression Severity"]}, {"conceptId": "C103616", "definition": "Neuropsychiatric Inventory - How emotionally distressing do you find this behavior?", "preferredTerm": "NPI - Anxiety Distress", "submissionValue": "NPI1-Anxiety Distress", "synonyms": ["NPI1-Anxiety Distress"]}, {"conceptId": "C103614", "definition": "Neuropsychiatric Inventory - Frequency of the anxiety.", "preferredTerm": "NPI - Anxiety Frequency", "submissionValue": "NPI1-Anxiety Frequency", "synonyms": ["NPI1-Anxiety Frequency"]}, {"conceptId": "C112473", "definition": "Neuropsychiatric Inventory - Anxiety: (frequency score x severity score).", "preferredTerm": "NPI - Anxiety FxS Score", "submissionValue": "NPI1-Anxiety FxS Score", "synonyms": ["NPI1-Anxiety FxS Score"]}, {"conceptId": "C103615", "definition": "Neuropsychiatric Inventory - Severity of the anxiety.", "preferredTerm": "NPI - Anxiety Severity", "submissionValue": "NPI1-Anxiety Severity", "synonyms": ["NPI1-Anxiety Severity"]}, {"conceptId": "C103622", "definition": "Neuropsychiatric Inventory - How emotionally distressing do you find this behavior?", "preferredTerm": "NPI - Apathy/Indifference Distress", "submissionValue": "NPI1-Apathy/Indifference Distress", "synonyms": ["NPI1-Apathy/Indifference Distress"]}, {"conceptId": "C103620", "definition": "Neuropsychiatric Inventory - Frequency of the apathy/indifference.", "preferredTerm": "NPI - Apathy/Indifference Frequency", "submissionValue": "NPI1-Apathy/Indifference Frequency", "synonyms": ["NPI1-Apathy/Indifference Frequency"]}, {"conceptId": "C112475", "definition": "Neuropsychiatric Inventory - Apathy/Indifference: (frequency score x severity score).", "preferredTerm": "NPI - Apathy/Indifference FxS Score", "submissionValue": "NPI1-Apathy/Indifference FxS Score", "synonyms": ["NPI1-Apathy/Indifference FxS Score"]}, {"conceptId": "C103621", "definition": "Neuropsychiatric Inventory - Severity of the apathy/indifference.", "preferredTerm": "NPI - Apathy/Indifference Severity", "submissionValue": "NPI1-Apathy/Indifference Severity", "synonyms": ["NPI1-Apathy/Indifference Severity"]}, {"conceptId": "C103637", "definition": "Neuropsychiatric Inventory - How emotionally distressing do you find this behavior?", "preferredTerm": "NPI - Appetite and Eating Disorders Distress", "submissionValue": "NPI1-Appetite/Eating Disorder Distress", "synonyms": ["NPI1-Appetite/Eating Disorder Distress"]}, {"conceptId": "C103635", "definition": "Neuropsychiatric Inventory - Frequency of the changes in eating habits or appetite.", "preferredTerm": "NPI - Appetite and Eating Disorders Frequency", "submissionValue": "NPI1-Appetite/Eating Disorder Frequency", "synonyms": ["NPI1-Appetite/Eating Disorder Frequency"]}, {"conceptId": "C103636", "definition": "Neuropsychiatric Inventory - Severity of the changes in eating habits or appetite.", "preferredTerm": "NPI - Appetite and Eating Disorders Severity", "submissionValue": "NPI1-Appetite/Eating Disorder Severity", "synonyms": ["NPI1-Appetite/Eating Disorder Severity"]}, {"conceptId": "C112480", "definition": "Neuropsychiatric Inventory - Appetite and Eating Disorders: (frequency score x severity score).", "preferredTerm": "NPI - Appetite/Eating Disorders FxS Score", "submissionValue": "NPI1-Appetite/Eating Disorders FxS Score", "synonyms": ["NPI1-Appetite/Eating Disorders FxS Score"]}, {"conceptId": "C100697", "definition": "Neuropsychiatric Inventory - Is the patient argumentative and difficult to get along with?", "preferredTerm": "NPI - Argumentative and Difficult to Get Along With", "submissionValue": "NPI1-Argumentative", "synonyms": ["NPI1-Argumentative"]}, {"conceptId": "C100663", "definition": "Neuropsychiatric Inventory - Does the patient avoid certain places or situations that make him/her more nervous such as riding in the car, meeting with friends, or being in crowds?", "preferredTerm": "NPI - Avoid Certain Places or Situations That Make Him/Her More Nervous", "submissionValue": "NPI1-Avoid Places or Situations", "synonyms": ["NPI1-Avoid Places or Situations"]}, {"conceptId": "C100711", "definition": "Neuropsychiatric Inventory - Does the patient awaken you during the night?", "preferredTerm": "NPI - Awaken You During the Night", "submissionValue": "NPI1-Awaken Caregiver during Night", "synonyms": ["NPI1-Awaken Caregiver during Night"]}, {"conceptId": "C100713", "definition": "Neuropsychiatric Inventory - Does the patient awaken too early in the morning (earlier than was his/her habit)?", "preferredTerm": "NPI - Awaken Too Early in Morning", "submissionValue": "NPI1-Awaken Too Early in Morning", "synonyms": ["NPI1-Awaken Too Early in Morning"]}, {"conceptId": "C100653", "definition": "Neuropsychiatric Inventory - Does the patient say that he/she is a bad person or deserves to be punished?", "preferredTerm": "NPI - Say That He/She is a Bad Person", "submissionValue": "NPI1-Bad Person", "synonyms": ["NPI1-Bad Person"]}, {"conceptId": "C100692", "definition": "Neuropsychiatric Inventory - Does the patient have a bad temper, flying \"off the handle\" easily over little things?", "preferredTerm": "NPI - Bad Temper, Flying 'Off the Handle' Easily Over Little Things", "submissionValue": "NPI1-Bad Temper", "synonyms": ["NPI1-Bad Temper"]}, {"conceptId": "C100622", "definition": "Neuropsychiatric Inventory - Does the patient have beliefs that you know are not true? (for example, insisting that people are trying to harm him/her or steal from him/her)? Has he/she said that family members are not who they say they are or that the house is not their home? I'm not asking about mere suspiciousness; I am interested if the patient is convinced that these things are happening to him/her.", "preferredTerm": "NPI - Have Beliefs That You Know are Not True", "submissionValue": "NPI1-Beliefs Untrue", "synonyms": ["NPI1-Beliefs Untrue"]}, {"conceptId": "C100655", "definition": "Neuropsychiatric Inventory - Does the patient say he/she is a burden to the family or that the family would be better off without him/her?", "preferredTerm": "NPI - Say He/She is a Burden to the Family", "submissionValue": "NPI1-Burden to Family", "synonyms": ["NPI1-Burden to Family"]}, {"conceptId": "C100662", "definition": "Neuropsychiatric Inventory - Does the patient complain of butterflies in his/her stomach, or of racing or pounding of the heart in association with nervousness? (Symptoms not explained by ill health).", "preferredTerm": "NPI - Complain of Butterflies, Racing or Pounding Heart", "submissionValue": "NPI1-Butterflies or Racing Heart", "synonyms": ["NPI1-Butterflies or Racing Heart"]}, {"conceptId": "C100716", "definition": "Neuropsychiatric Inventory - Has he/she had any change in appetite, weight, or eating habits (count as NA if the patient is incapacitated and has to be fed)? Has there been any change in the type of food he/she prefers?", "preferredTerm": "NPI - Change in Appetite, Weight, or Eating Habits", "submissionValue": "NPI1-Change in Appetite or Weight", "synonyms": ["NPI1-Change in Appetite or Weight"]}, {"conceptId": "C100721", "definition": "Neuropsychiatric Inventory - Has he/she had a change in eating behavior such as putting too much food in his/her mouth at once?", "preferredTerm": "NPI - Change in Eating Behavior", "submissionValue": "NPI1-Change in Eating Behavior", "synonyms": ["NPI1-Change in Eating Behavior"]}, {"conceptId": "C100722", "definition": "Neuropsychiatric Inventory - Has he/she had a change in the kind of food he/she likes such as eating too many sweets or other specific types of food?", "preferredTerm": "NPI - Change in Kind of Food He/She Likes", "submissionValue": "NPI1-Change in Kind of Food", "synonyms": ["NPI1-Change in Kind of Food"]}, {"conceptId": "C100671", "definition": "Neuropsychiatric Inventory - Does he/she play childish pranks such as pinching or playing \"keep away\" for the fun of it?", "preferredTerm": "NPI - Play Childish Pranks", "submissionValue": "NPI1-Childish Pranks", "synonyms": ["NPI1-Childish Pranks"]}, {"conceptId": "C100669", "definition": "Neuropsychiatric Inventory - Does the patient seem to have a childish sense of humor with a tendency to giggle or laugh inappropriately (such as when something unfortunate happens to others)?", "preferredTerm": "NPI - Seem to Have a Childish Sense of Humor", "submissionValue": "NPI1-Childish Sense of Humor", "synonyms": ["NPI1-Childish Sense of Humor"]}, {"conceptId": "C100678", "definition": "Neuropsychiatric Inventory - Does the patient contribute less to household chores?", "preferredTerm": "NPI - Contribute Less to Household Chores", "submissionValue": "NPI1-Contribute Less to Chores", "synonyms": ["NPI1-Contribute Less to Chores"]}, {"conceptId": "C100696", "definition": "Neuropsychiatric Inventory - Is the patient cranky and irritable?", "preferredTerm": "NPI - Cranky and Irritable", "submissionValue": "NPI1-Cranky and Irritable", "synonyms": ["NPI1-Cranky and Irritable"]}, {"conceptId": "C103604", "definition": "Neuropsychiatric Inventory - How emotionally distressing do you find this behavior?", "preferredTerm": "NPI - Delusions Distress", "submissionValue": "NPI1-Delusions Distress", "synonyms": ["NPI1-Delusions Distress"]}, {"conceptId": "C103602", "definition": "Neuropsychiatric Inventory - Frequency of the delusions.", "preferredTerm": "NPI - Delusions Frequency", "submissionValue": "NPI1-Delusions Frequency", "synonyms": ["NPI1-Delusions Frequency"]}, {"conceptId": "C112469", "definition": "Neuropsychiatric Inventory - Delusions: (frequency score x severity score).", "preferredTerm": "NPI - Delusions FxS Score", "submissionValue": "NPI1-Delusions FxS Score", "synonyms": ["NPI1-Delusions FxS Score"]}, {"conceptId": "C103603", "definition": "Neuropsychiatric Inventory - Severity of the delusions.", "preferredTerm": "NPI - Delusions Severity", "submissionValue": "NPI1-Delusions Severity", "synonyms": ["NPI1-Delusions Severity"]}, {"conceptId": "C103613", "definition": "Neuropsychiatric Inventory - How emotionally distressing do you find this behavior?", "preferredTerm": "NPI - Depression/Dysphoria Distress", "submissionValue": "NPI1-Depression/Dysphoria Distress", "synonyms": ["NPI1-Depression/Dysphoria Distress"]}, {"conceptId": "C103611", "definition": "Neuropsychiatric Inventory - Frequency of the depression/dysphoria.", "preferredTerm": "NPI - Depression/Dysphoria Frequency", "submissionValue": "NPI1-Depression/Dysphoria Frequency", "synonyms": ["NPI1-Depression/Dysphoria Frequency"]}, {"conceptId": "C112472", "definition": "Neuropsychiatric Inventory - Depression/Dysphoria: (frequency score x severity score).", "preferredTerm": "NPI - Depression/Dysphoria FxS Score", "submissionValue": "NPI1-Depression/Dysphoria FxS Score", "synonyms": ["NPI1-Depression/Dysphoria FxS Score"]}, {"conceptId": "C103612", "definition": "Neuropsychiatric Inventory - Severity of the depression/dysphoria.", "preferredTerm": "NPI - Depression/Dysphoria Severity", "submissionValue": "NPI1-Depression/Dysphoria Severity", "synonyms": ["NPI1-Depression/Dysphoria Severity"]}, {"conceptId": "C100723", "definition": "Neuropsychiatric Inventory - Has he/she developed eating behaviors such as eating exactly the same types of food each day or eating the food in exactly the same order?", "preferredTerm": "NPI - Developed Eating Behaviors Such as Eating Exactly the Same Types of Food", "submissionValue": "NPI1-Develop Eating Behaviors", "synonyms": ["NPI1-Develop Eating Behaviors"]}, {"conceptId": "C100708", "definition": "Neuropsychiatric Inventory - Does the patient have difficulty falling asleep?", "preferredTerm": "NPI - Difficulty Falling Asleep", "submissionValue": "NPI1-Difficulty Falling Asleep", "synonyms": ["NPI1-Difficulty Falling Asleep"]}, {"conceptId": "C100707", "definition": "Neuropsychiatric Inventory - Does the patient have difficulty sleeping (do not count as present if the patient simply gets up once or twice per night to go the bathroom and falls back asleep immediately)? Is he/she up at night? Does he/she wander at night, get dressed, or disturb your sleep?", "preferredTerm": "NPI - Difficulty Sleeping", "submissionValue": "NPI1-Difficulty Sleeping", "synonyms": ["NPI1-Difficulty Sleeping"]}, {"conceptId": "C100654", "definition": "Neuropsychiatric Inventory - Does the patient seem very discouraged or say that he/she has no future?", "preferredTerm": "NPI - Seem Very Discouraged", "submissionValue": "NPI1-Discouraged", "synonyms": ["NPI1-Discouraged"]}, {"conceptId": "C103625", "definition": "Neuropsychiatric Inventory - How emotionally distressing do you find this behavior?", "preferredTerm": "NPI - Disinhibition Distress", "submissionValue": "NPI1-Disinhibition Distress", "synonyms": ["NPI1-Disinhibition Distress"]}, {"conceptId": "C103623", "definition": "Neuropsychiatric Inventory - Frequency of the disinhibition.", "preferredTerm": "NPI - Disinhibition Frequency", "submissionValue": "NPI1-Disinhibition Frequency", "synonyms": ["NPI1-Disinhibition Frequency"]}, {"conceptId": "C112476", "definition": "Neuropsychiatric Inventory - Disinhibition: (frequency score x severity score).", "preferredTerm": "NPI - Disinhibition FxS Score", "submissionValue": "NPI1-Disinhibition FxS Score", "synonyms": ["NPI1-Disinhibition FxS Score"]}, {"conceptId": "C103624", "definition": "Neuropsychiatric Inventory - Severity of the disinhibition.", "preferredTerm": "NPI - Disinhibition Severity", "submissionValue": "NPI1-Disinhibition Severity", "synonyms": ["NPI1-Disinhibition Severity"]}, {"conceptId": "C100699", "definition": "Neuropsychiatric Inventory - Does the patient pace, do things over and over such as opening closets or drawers, or repeatedly pick at things or wind string or threads?", "preferredTerm": "NPI - Pace, Do Things Over and Over, Repeatedly Pick at Things", "submissionValue": "NPI1-Do Things Repeatedly", "synonyms": ["NPI1-Do Things Repeatedly"]}, {"conceptId": "C103619", "definition": "Neuropsychiatric Inventory - How emotionally distressing do you find this behavior?", "preferredTerm": "NPI - Elation/Euphoria Distress", "submissionValue": "NPI1-Elation/Euphoria Distress", "synonyms": ["NPI1-Elation/Euphoria Distress"]}, {"conceptId": "C103617", "definition": "Neuropsychiatric Inventory - Frequency of the elation/euphoria.", "preferredTerm": "NPI - Elation/Euphoria Frequency", "submissionValue": "NPI1-Elation/Euphoria Frequency", "synonyms": ["NPI1-Elation/Euphoria Frequency"]}, {"conceptId": "C112474", "definition": "Neuropsychiatric Inventory - Elation/Euphoria: (frequency score x severity score).", "preferredTerm": "NPI - Elation/Euphoria FxS Score", "submissionValue": "NPI1-Elation/Euphoria FxS Score", "synonyms": ["NPI1-Elation/Euphoria FxS Score"]}, {"conceptId": "C103618", "definition": "Neuropsychiatric Inventory - Severity of the elation/euphoria.", "preferredTerm": "NPI - Elation/Euphoria Severity", "submissionValue": "NPI1-Elation/Euphoria Severity", "synonyms": ["NPI1-Elation/Euphoria Severity"]}, {"conceptId": "C100714", "definition": "Neuropsychiatric Inventory - Does the patient sleep excessively during the day?", "preferredTerm": "NPI - Sleep Excessively During the Day", "submissionValue": "NPI1-Excessive Sleep during Day", "synonyms": ["NPI1-Excessive Sleep during Day"]}, {"conceptId": "C100632", "definition": "Neuropsychiatric Inventory - Does the patient have hallucinations such as seeing false visions or hearing false voices? Does he/she seem to see, hear or experience things that are not present? By this question we do not mean just mistaken beliefs such as stating that someone who has died is still alive; rather we are asking if the patient actually has abnormal experiences of sounds or visions.", "preferredTerm": "NPI - Hallucinations Such as Seeing False Visions or Hearing False Voices", "submissionValue": "NPI1-False Visions or Voices", "synonyms": ["NPI1-False Visions or Voices"]}, {"conceptId": "C100629", "definition": "Neuropsychiatric Inventory - Does the patient believe that family members plan to abandon him/her?", "preferredTerm": "NPI - Family Members Plan to Abandon Him/Her", "submissionValue": "NPI1-Family Plans to Abandon", "synonyms": ["NPI1-Family Plans to Abandon"]}, {"conceptId": "C100667", "definition": "Neuropsychiatric Inventory - Does the patient appear to feel good or to be too happy, different from his/her usual self?", "preferredTerm": "NPI - Appear to Feel Good or to Be Too Happy", "submissionValue": "NPI1-Feel Good or Too Happy", "synonyms": ["NPI1-Feel Good or Too Happy"]}, {"conceptId": "C100652", "definition": "Neuropsychiatric Inventory - Does the patient put him/herself down or say that he/she feels like a failure?", "preferredTerm": "NPI - Put Him/Herself Down or Say That He/She Feels Like a Failure", "submissionValue": "NPI1-Feel Like a Failure", "synonyms": ["NPI1-Feel Like a Failure"]}, {"conceptId": "C100637", "definition": "Neuropsychiatric Inventory - Does the patient describe feeling things on his/her skin or otherwise appear to be feeling things crawling or touching him/her?", "preferredTerm": "NPI - Describe Feeling Things on His/Her Skin", "submissionValue": "NPI1-Feel Things on Skin", "synonyms": ["NPI1-Feel Things on Skin"]}, {"conceptId": "C100705", "definition": "Neuropsychiatric Inventory - Does the patient fidget excessively, seem unable to sit still, or bounce his/her feet or tap his/her fingers a lot?", "preferredTerm": "NPI - Fidget Excessively, Seem Unable to Sit Still", "submissionValue": "NPI1-Fidget Excessively", "synonyms": ["NPI1-Fidget Excessively"]}, {"conceptId": "C100709", "definition": "Neuropsychiatric Inventory - Does the patient get up during the night (do not count if the patient gets up once or twice per night only to go to the bathroom and falls back asleep immediately)?", "preferredTerm": "NPI - Get Up During the Night", "submissionValue": "NPI1-Get Up during Night", "synonyms": ["NPI1-Get Up during Night"]}, {"conceptId": "C100641", "definition": "Neuropsychiatric Inventory - Does the patient get upset with those trying to care for him/her or resist activities such as bathing or changing clothes?", "preferredTerm": "NPI - Get Upset with Those Trying to Care for Him/Her", "submissionValue": "NPI1-Get Upset with Caregiver", "synonyms": ["NPI1-Get Upset with Caregiver"]}, {"conceptId": "C103607", "definition": "Neuropsychiatric Inventory - How emotionally distressing do you find this behavior?", "preferredTerm": "NPI - Hallucinations Distress", "submissionValue": "NPI1-Hallucinations Distress", "synonyms": ["NPI1-Hallucinations Distress"]}, {"conceptId": "C103605", "definition": "Neuropsychiatric Inventory - Frequency of the hallucinations.", "preferredTerm": "NPI - Hallucinations Frequency", "submissionValue": "NPI1-Hallucinations Frequency", "synonyms": ["NPI1-Hallucinations Frequency"]}, {"conceptId": "C112470", "definition": "Neuropsychiatric Inventory - Hallucinations: (frequency score x severity score).", "preferredTerm": "NPI - Hallucinations FxS Score", "submissionValue": "NPI1-Hallucinations FxS Score", "synonyms": ["NPI1-Hallucinations FxS Score"]}, {"conceptId": "C103606", "definition": "Neuropsychiatric Inventory - Severity of the hallucinations.", "preferredTerm": "NPI - Hallucinations Severity", "submissionValue": "NPI1-Hallucinations Severity", "synonyms": ["NPI1-Hallucinations Severity"]}, {"conceptId": "C100633", "definition": "Neuropsychiatric Inventory - Does the patient describe hearing voices or act as if he/she hears voices?", "preferredTerm": "NPI - Describe Hearing Voices or Act as if He/She Hears Voices", "submissionValue": "NPI1-Hearing Voices", "synonyms": ["NPI1-Hearing Voices"]}, {"conceptId": "C100628", "definition": "Neuropsychiatric Inventory - Does the patient believe that his/her house is not his/her home?", "preferredTerm": "NPI - His/Her House Is Not His/Her Home", "submissionValue": "NPI1-House Not Their Home", "synonyms": ["NPI1-House Not Their Home"]}, {"conceptId": "C100668", "definition": "Neuropsychiatric Inventory - Does the patient find humor and laugh at things that others do not find funny?", "preferredTerm": "NPI - Fine Humor and Laugh at Things That Others Do Not Find Funny", "submissionValue": "NPI1-Humor Others Do Not Find Funny", "synonyms": ["NPI1-Humor Others Do Not Find Funny"]}, {"conceptId": "C100647", "definition": "Neuropsychiatric Inventory - Does the patient attempt to hurt or hit others?", "preferredTerm": "NPI - Attempt to Hurt or Hit Others", "submissionValue": "NPI1-Hurt or Hit Others", "synonyms": ["NPI1-Hurt or Hit Others"]}, {"conceptId": "C100695", "definition": "Neuropsychiatric Inventory - Is the patient impatient, having trouble coping with delays or waiting for planned activities?", "preferredTerm": "NPI - Impatient, Having Trouble Coping with Delays", "submissionValue": "NPI1-Impatient", "synonyms": ["NPI1-Impatient"]}, {"conceptId": "C100623", "definition": "Neuropsychiatric Inventory - Does the patient believe that he/she is in danger - that others are planning to hurt him/her?", "preferredTerm": "NPI - He/She is in Danger", "submissionValue": "NPI1-In Danger", "synonyms": ["NPI1-In Danger"]}, {"conceptId": "C100718", "definition": "Neuropsychiatric Inventory - Has he/she had an increase in appetite?", "preferredTerm": "NPI - Increase in Appetite", "submissionValue": "NPI1-Increase in Appetite", "synonyms": ["NPI1-Increase in Appetite"]}, {"conceptId": "C103628", "definition": "Neuropsychiatric Inventory - How emotionally distressing do you find this behavior?", "preferredTerm": "NPI - Irritability/Lability Distress", "submissionValue": "NPI1-Irritability/Lability Distress", "synonyms": ["NPI1-Irritability/Lability Distress"]}, {"conceptId": "C103626", "definition": "Neuropsychiatric Inventory - Frequency of the irritability/lability.", "preferredTerm": "NPI - Irritability/Lability Frequency", "submissionValue": "NPI1-Irritability/Lability Frequency", "synonyms": ["NPI1-Irritability/Lability Frequency"]}, {"conceptId": "C112477", "definition": "Neuropsychiatric Inventory - Irritability/Lability: (frequency score x severity score).", "preferredTerm": "NPI - Irritability/Lability FxS Score", "submissionValue": "NPI1-Irritability/Lability FxS Score", "synonyms": ["NPI1-Irritability/Lability FxS Score"]}, {"conceptId": "C103627", "definition": "Neuropsychiatric Inventory - Severity of the irritability/lability.", "preferredTerm": "NPI - Irritability/Lability Severity", "submissionValue": "NPI1-Irritability/Lability Severity", "synonyms": ["NPI1-Irritability/Lability Severity"]}, {"conceptId": "C100691", "definition": "Neuropsychiatric Inventory - Does the patient get irritated and easily disturbed? Are his/her moods very changeable? Is he/she abnormally impatient? We do not mean frustration over memory loss or inability to perform usual tasks; we are interested to know if the patient has abnormal irritability, impatience, or rapid emotional changes different from his/her usual self.", "preferredTerm": "NPI - Get Irritated and Easily Disturbed", "submissionValue": "NPI1-Irritated and Easily Disturbed", "synonyms": ["NPI1-Irritated and Easily Disturbed"]}, {"conceptId": "C100670", "definition": "Neuropsychiatric Inventory - Does the patient tell jokes or make remarks that are not funny to others but seem funny to him/her?", "preferredTerm": "NPI - Tell Jokes or Make Remarks That are Not Funny to Others", "submissionValue": "NPI1-Jokes Others Do Not Find Funny", "synonyms": ["NPI1-Jokes Others Do Not Find Funny"]}, {"conceptId": "C100677", "definition": "Neuropsychiatric Inventory - Is the patient less affectionate or lacking in emotions when compared to his/her usual self?", "preferredTerm": "NPI - Less Affectionate or Lacking in Emotions", "submissionValue": "NPI1-Less Affectionate", "synonyms": ["NPI1-Less Affectionate"]}, {"conceptId": "C100681", "definition": "Neuropsychiatric Inventory - Is the patient less enthusiastic about his/her usual interests?", "preferredTerm": "NPI - Less Enthusiastic About His/Her Usual Interests", "submissionValue": "NPI1-Less Enthusiastic", "synonyms": ["NPI1-Less Enthusiastic"]}, {"conceptId": "C100679", "definition": "Neuropsychiatric Inventory - Does the patient seem less interested in the activities and plans of others?", "preferredTerm": "NPI - Less Interested in the Activities and Plans of Others", "submissionValue": "NPI1-Less Interest in Activities", "synonyms": ["NPI1-Less Interest in Activities"]}, {"conceptId": "C100676", "definition": "Neuropsychiatric Inventory - Is the patient less likely to initiate a conversation?", "preferredTerm": "NPI - Less Likely Initiate to Initiate a Conversation", "submissionValue": "NPI1-Less Likely Initiate Conversation", "synonyms": ["NPI1-Less Likely Initiate Conversation"]}, {"conceptId": "C100675", "definition": "Neuropsychiatric Inventory - Does the patient seem less spontaneous and less active than usual?", "preferredTerm": "NPI - Seem Less Spontaneous and Less Active Than Usual", "submissionValue": "NPI1-Less Spontaneous or Active", "synonyms": ["NPI1-Less Spontaneous or Active"]}, {"conceptId": "C100717", "definition": "Neuropsychiatric Inventory - Has he/she had a loss of appetite?", "preferredTerm": "NPI - Loss of Appetite", "submissionValue": "NPI1-Loss of Appetite", "synonyms": ["NPI1-Loss of Appetite"]}, {"conceptId": "C100680", "definition": "Neuropsychiatric Inventory - Has the patient lost interest in friends and family members?", "preferredTerm": "NPI - Lost Interest in Friends and Family Members", "submissionValue": "NPI1-Lost Interest in Friends", "synonyms": ["NPI1-Lost Interest in Friends"]}, {"conceptId": "C100674", "definition": "Neuropsychiatric Inventory - Has the patient lost interest in the world around him/her? Has he/she lost interest in doing things or does he/she lack motivation for starting new activities? Is he/she more difficult to engage in conversation or in doing chores? Is the patient apathetic or indifferent?", "preferredTerm": "NPI - Lost Interest in the World Around Him/Her", "submissionValue": "NPI1-Lost Interest in World", "synonyms": ["NPI1-Lost Interest in World"]}, {"conceptId": "C100687", "definition": "Neuropsychiatric Inventory - Does the patient say crude things or make sexual remarks that he/she would not usually have said?", "preferredTerm": "NPI - Say Crude Things or Make Sexual Remarks", "submissionValue": "NPI1-Make Crude Remarks", "synonyms": ["NPI1-Make Crude Remarks"]}, {"conceptId": "C112482", "definition": "Neuropsychiatric Inventory - Sub-total of distress score.", "preferredTerm": "NPI - NPI Total Distress Score", "submissionValue": "NPI1-NPI Total Distress Score", "synonyms": ["NPI1-NPI Total Distress Score"]}, {"conceptId": "C112481", "definition": "Neuropsychiatric Inventory - Total of (Frequency Sub-total) x (Severity Sub-total).", "preferredTerm": "NPI - NPI Total Score", "submissionValue": "NPI1-NPI Total Score", "synonyms": ["NPI1-NPI Total Score"]}, {"conceptId": "C100658", "definition": "Neuropsychiatric Inventory - Is the patient very nervous, worried, or frightened for no apparent reason? Does he/she seem very tense or fidgety? Is the patient afraid to be apart from you?", "preferredTerm": "NPI - Very Nervous, Worried, or Frightened for No Apparent Reason", "submissionValue": "NPI1-Nervous or Worried", "synonyms": ["NPI1-Nervous or Worried"]}, {"conceptId": "C100664", "definition": "Neuropsychiatric Inventory - Does the patient become nervous and upset when separated from you (or his/her caregiver)? (Does he/she cling to you to keep from being separated?).", "preferredTerm": "NPI - Become Nervous and Upset When Separated From You", "submissionValue": "NPI1-Nervous when Separated", "synonyms": ["NPI1-Nervous when Separated"]}, {"conceptId": "C100648", "definition": "Neuropsychiatric Inventory - Does the patient have any other aggressive or agitated behaviors?", "preferredTerm": "NPI - Any Other Aggressive or Agitated Behaviors", "submissionValue": "NPI1-Other Aggressive Behavior", "synonyms": ["NPI1-Other Aggressive Behavior"]}, {"conceptId": "C100644", "definition": "Neuropsychiatric Inventory - Does the patient have any other behaviors that make him/her hard to handle?", "preferredTerm": "NPI - Any Other Behaviors That Make Him/Her Hard to Handle", "submissionValue": "NPI1-Other Behaviors Hard to Handle", "synonyms": ["NPI1-Other Behaviors Hard to Handle"]}, {"conceptId": "C100724", "definition": "Neuropsychiatric Inventory - Have there been any other changes in appetite or eating that I haven't asked about?", "preferredTerm": "NPI - Any Other Changes in Appetite or Eating", "submissionValue": "NPI1-Other Changes in Eating", "synonyms": ["NPI1-Other Changes in Eating"]}, {"conceptId": "C100715", "definition": "Neuropsychiatric Inventory - Does the patient have any other nighttime behaviors that bother you that we haven't talked about?", "preferredTerm": "NPI - Any Other Nighttime Behaviors That Bother You", "submissionValue": "NPI1-Other Nighttime Behaviors", "synonyms": ["NPI1-Other Nighttime Behaviors"]}, {"conceptId": "C100706", "definition": "Neuropsychiatric Inventory - Does the patient do any other activities over and over?", "preferredTerm": "NPI - Do Any Other Activities Over and Over", "submissionValue": "NPI1-Other Repetitive Activities", "synonyms": ["NPI1-Other Repetitive Activities"]}, {"conceptId": "C100665", "definition": "Neuropsychiatric Inventory - Does the patient show any other signs of anxiety?", "preferredTerm": "NPI - Show Any Other Signs of Anxiety", "submissionValue": "NPI1-Other Signs of Anxiety", "synonyms": ["NPI1-Other Signs of Anxiety"]}, {"conceptId": "C100657", "definition": "Neuropsychiatric Inventory - Does the patient show any other signs of depression or sadness?", "preferredTerm": "NPI - Show Any Other Signs of Depression or Sadness", "submissionValue": "NPI1-Other Signs of Depression", "synonyms": ["NPI1-Other Signs of Depression"]}, {"conceptId": "C100673", "definition": "Neuropsychiatric Inventory - Does the patient show any other signs of feeling too good or being too happy?", "preferredTerm": "NPI - Show Any Other Signs of Feeling Too Good or Being Too Happy", "submissionValue": "NPI1-Other Signs of Feeling Too Happy", "synonyms": ["NPI1-Other Signs of Feeling Too Happy"]}, {"conceptId": "C100690", "definition": "Neuropsychiatric Inventory - Does the patient show any other signs of loss of control of his/her impulses?", "preferredTerm": "NPI - Show Any Other Signs of Loss of Control of His/Her Impulses", "submissionValue": "NPI1-Other Signs of Impulses", "synonyms": ["NPI1-Other Signs of Impulses"]}, {"conceptId": "C100698", "definition": "Neuropsychiatric Inventory - Does the patient show any other signs of irritability?", "preferredTerm": "NPI - Show Any Other Signs of Irritability", "submissionValue": "NPI1-Other Signs of Irritability", "synonyms": ["NPI1-Other Signs of Irritability"]}, {"conceptId": "C100682", "definition": "Neuropsychiatric Inventory - Does the patient show any other signs that he/she doesn't care about doing new things?", "preferredTerm": "NPI - Show Any Other Signs That He/She Doesn't Care About Doing New Things", "submissionValue": "NPI1-Other Signs of Not Caring", "synonyms": ["NPI1-Other Signs of Not Caring"]}, {"conceptId": "C100631", "definition": "Neuropsychiatric Inventory - Does the patient believe any other unusual things that I haven't asked about?", "preferredTerm": "NPI - Any Other Unusual Things That I Haven't Asked About", "submissionValue": "NPI1-Other Unusual Beliefs", "synonyms": ["NPI1-Other Unusual Beliefs"]}, {"conceptId": "C100639", "definition": "Neuropsychiatric Inventory - Does the patient describe any other unusual sensory experiences?", "preferredTerm": "NPI - Describe Any Other Unusual Sensory Experiences", "submissionValue": "NPI1-Other Unusual Sensory Experience", "synonyms": ["NPI1-Other Unusual Sensory Experience"]}, {"conceptId": "C100624", "definition": "Neuropsychiatric Inventory - Does the patient believe that others are stealing from him/her?", "preferredTerm": "NPI - Others are Stealing From Him/Her", "submissionValue": "NPI1-Others Are Stealing", "synonyms": ["NPI1-Others Are Stealing"]}, {"conceptId": "C100700", "definition": "Neuropsychiatric Inventory - Does the patient pace around the house without apparent purpose?", "preferredTerm": "NPI - Pace Around the House Without Apparent Purpose", "submissionValue": "NPI1-Pace", "synonyms": ["NPI1-Pace"]}, {"conceptId": "C100627", "definition": "Neuropsychiatric Inventory - Does the patient believe that his/her spouse or others are not who they claim to be?", "preferredTerm": "NPI - His/Her Spouse or Others Are Not Who They Claim To Be", "submissionValue": "NPI1-People Not Who They Claim", "synonyms": ["NPI1-People Not Who They Claim"]}, {"conceptId": "C100693", "definition": "Neuropsychiatric Inventory - Does the patient rapidly change moods from one to another, being fine one minute and angry the next?", "preferredTerm": "NPI - Rapidly Change Moods From One to Another", "submissionValue": "NPI1-Rapidly Change Moods", "synonyms": ["NPI1-Rapidly Change Moods"]}, {"conceptId": "C100640", "definition": "Neuropsychiatric Inventory - Does the patient have periods when he/she refuses to cooperate or won't let people help him/her? Is he/she hard to handle?", "preferredTerm": "NPI - Periods When He/She Refuses to Cooperate", "submissionValue": "NPI1-Refuse to Cooperate", "synonyms": ["NPI1-Refuse to Cooperate"]}, {"conceptId": "C100702", "definition": "Neuropsychiatric Inventory - Does the patient repeatedly put on and take off clothing?", "preferredTerm": "NPI - Repeatedly Put On and Take Off Clothing", "submissionValue": "NPI1-Repeatedly Change Clothing", "synonyms": ["NPI1-Repeatedly Change Clothing"]}, {"conceptId": "C100704", "definition": "Neuropsychiatric Inventory - Does the patient engage in repetitive activities such as handling buttons, picking, wrapping string, etc.?", "preferredTerm": "NPI - Engage in Repetitive Activities", "submissionValue": "NPI1-Repetitive Activities", "synonyms": ["NPI1-Repetitive Activities"]}, {"conceptId": "C100703", "definition": "Neuropsychiatric Inventory - Does the patient have repetitive activities or \"habits\" that he/she performs over and over?", "preferredTerm": "NPI - Repetitive Activities or 'Habits'", "submissionValue": "NPI1-Repetitive Activities or Habits", "synonyms": ["NPI1-Repetitive Activities or Habits"]}, {"conceptId": "C100701", "definition": "Neuropsychiatric Inventory - Does the patient rummage around opening and unpacking drawers or closets?", "preferredTerm": "NPI - Rummage Around Opening and Unpacking Drawers or Closets", "submissionValue": "NPI1-Rummage Around and Unpack", "synonyms": ["NPI1-Rummage Around and Unpack"]}, {"conceptId": "C100649", "definition": "Neuropsychiatric Inventory - Does the patient seem sad or depressed? Does he/she say that he/she feels sad or depressed?", "preferredTerm": "NPI - Seem Sad or Depressed", "submissionValue": "NPI1-Sad or Depressed", "synonyms": ["NPI1-Sad or Depressed"]}, {"conceptId": "C100686", "definition": "Neuropsychiatric Inventory - Does the patient say things to people that are insensitive or hurt their feelings?", "preferredTerm": "NPI - Say Things to People that are Insensitive", "submissionValue": "NPI1-Say Insensitive Things", "synonyms": ["NPI1-Say Insensitive Things"]}, {"conceptId": "C100651", "definition": "Neuropsychiatric Inventory - Does the patient say, or act as if he/she is sad or in low spirits?", "preferredTerm": "NPI - Say, or Act as if He/She is Sad or in Low Spirits", "submissionValue": "NPI1-Say or Act in Low Spirits", "synonyms": ["NPI1-Say or Act in Low Spirits"]}, {"conceptId": "C100635", "definition": "Neuropsychiatric Inventory - Does the patient describe seeing things not seen by others or behave as if he/she is seeing things not seen by others (people, animals, lights, etc.)?", "preferredTerm": "NPI - Describe Seeing Things Not Seen by Others", "submissionValue": "NPI1-See Things Not Seen by Others", "synonyms": ["NPI1-See Things Not Seen by Others"]}, {"conceptId": "C100660", "definition": "Neuropsychiatric Inventory - Does the patient have periods of feeling shaky, unable to relax, or feeling excessively tense?", "preferredTerm": "NPI - Periods of Feeling Shaky, Unable to Relax, or Feeling Excessively Tense", "submissionValue": "NPI1-Shaky or Unable to Relax", "synonyms": ["NPI1-Shaky or Unable to Relax"]}, {"conceptId": "C100661", "definition": "Neuropsychiatric Inventory - Does the patient have periods of (or complain of) shortness of breath, gasping, or sighing for no apparent reason other than nervousness?", "preferredTerm": "NPI - Periods of Shortness of Breath, Gasping, or Sighing for No Apparent Reason", "submissionValue": "NPI1-Short of Breath, Gasp, Sigh", "synonyms": ["NPI1-Short of Breath, Gasp, Sigh"]}, {"conceptId": "C100645", "definition": "Neuropsychiatric Inventory - Does the patient shout or curse angrily?", "preferredTerm": "NPI - Shout or Curse Angrily", "submissionValue": "NPI1-Shout or Curse Angrily", "synonyms": ["NPI1-Shout or Curse Angrily"]}, {"conceptId": "C100646", "definition": "Neuropsychiatric Inventory - Does the patient slam doors, kick furniture, throw things?", "preferredTerm": "NPI - Slam doors, Kick Furniture, Throw Things", "submissionValue": "NPI1-Slam, Kick or Throw Things", "synonyms": ["NPI1-Slam, Kick or Throw Things"]}, {"conceptId": "C112479", "definition": "Neuropsychiatric Inventory - Sleep and Nighttime Behavior Disorders: (frequency score x severity score).", "preferredTerm": "NPI - Sleep/Night Behavior Disorder FxS Score", "submissionValue": "NPI1-Sleep/Night Behav Disord FxS Score", "synonyms": ["NPI1-Sleep/Night Behav Disord FxS Score"]}, {"conceptId": "C103634", "definition": "Neuropsychiatric Inventory - How emotionally distressing do you find this behavior?", "preferredTerm": "NPI - Sleep and Nighttime Behavior Disorders Distress", "submissionValue": "NPI1-Sleep/Nighttime Behavior Distress", "synonyms": ["NPI1-Sleep/Nighttime Behavior Distress"]}, {"conceptId": "C103632", "definition": "Neuropsychiatric Inventory - Frequency of the nighttime behavior.", "preferredTerm": "NPI - Sleep and Nighttime Behavior Disorders Frequency", "submissionValue": "NPI1-Sleep/Nighttime Behavior Frequency", "synonyms": ["NPI1-Sleep/Nighttime Behavior Frequency"]}, {"conceptId": "C103633", "definition": "Neuropsychiatric Inventory - Severity of the nighttime behavior.", "preferredTerm": "NPI - Sleep and Nighttime Behavior Disorders Severity", "submissionValue": "NPI1-Sleep/Nighttime Behavior Severity", "synonyms": ["NPI1-Sleep/Nighttime Behavior Severity"]}, {"conceptId": "C100636", "definition": "Neuropsychiatric Inventory - Does the patient report smelling odors not smelled by others?", "preferredTerm": "NPI - Report Smelling Odors Not Smelled by Others", "submissionValue": "NPI1-Smell Odors Others Do Not Smell", "synonyms": ["NPI1-Smell Odors Others Do Not Smell"]}, {"conceptId": "C100625", "definition": "Neuropsychiatric Inventory - Does the patient believe that his/her spouse is having an affair?", "preferredTerm": "NPI - His/Her Spouse is Having an Affair", "submissionValue": "NPI1-Spouse Having Affair", "synonyms": ["NPI1-Spouse Having Affair"]}, {"conceptId": "C100642", "definition": "Neuropsychiatric Inventory - Is the patient stubborn, having to have things his/her way?", "preferredTerm": "NPI - Stubborn", "submissionValue": "NPI1-Stubborn", "synonyms": ["NPI1-Stubborn"]}, {"conceptId": "C100694", "definition": "Neuropsychiatric Inventory - Does the patient have sudden flashes of anger?", "preferredTerm": "NPI - Sudden Flares of Anger", "submissionValue": "NPI1-Sudden Anger", "synonyms": ["NPI1-Sudden Anger"]}, {"conceptId": "C100630", "definition": "Neuropsychiatric Inventory - Does the patient believe that television or magazine figures are actually present in the home? (Does he/she try to talk or interact with them?)", "preferredTerm": "NPI - Television or Magazine Figures Are Actually Present In the Home", "submissionValue": "NPI1-TV/Magazine Figures Present", "synonyms": ["NPI1-TV/Magazine Figures Present"]}, {"conceptId": "C100689", "definition": "Neuropsychiatric Inventory - Does the patient take liberties or touch or hug others in a way that is out of character for him/her?", "preferredTerm": "NPI - Take Liberties or Touch or Hug Others", "submissionValue": "NPI1-Take Liberties or Touch Others", "synonyms": ["NPI1-Take Liberties or Touch Others"]}, {"conceptId": "C100672", "definition": "Neuropsychiatric Inventory - Does the patient \"talk big\" or claim to have more abilities or wealth than is true?", "preferredTerm": "NPI - Talk Big or Claim to Have More Abilities or Wealth Than is True", "submissionValue": "NPI1-Talk Big", "synonyms": ["NPI1-Talk Big"]}, {"conceptId": "C100688", "definition": "Neuropsychiatric Inventory - Does the patient talk openly about very personal or private matters not usually discussed in public?", "preferredTerm": "NPI - Talk Openly About Very Personal or Private Matters", "submissionValue": "NPI1-Talk Openly about Private Matters", "synonyms": ["NPI1-Talk Openly about Private Matters"]}, {"conceptId": "C100634", "definition": "Neuropsychiatric Inventory - Does the patient talk to people who are not there?", "preferredTerm": "NPI - Talk to People Who Are Not There", "submissionValue": "NPI1-Talk to People Not There", "synonyms": ["NPI1-Talk to People Not There"]}, {"conceptId": "C100685", "definition": "Neuropsychiatric Inventory - Does the patient talk to total strangers as if he/she knew them?", "preferredTerm": "NPI - Talk to Total Strangers as if He/She Knew Them", "submissionValue": "NPI1-Talk to Strangers", "synonyms": ["NPI1-Talk to Strangers"]}, {"conceptId": "C100638", "definition": "Neuropsychiatric Inventory - Does the patient describe tastes that are without any known cause?", "preferredTerm": "NPI - Describe Tastes That Are Without Any Known Cause", "submissionValue": "NPI1-Taste without Known Cause", "synonyms": ["NPI1-Taste without Known Cause"]}, {"conceptId": "C100650", "definition": "Neuropsychiatric Inventory - Does the patient have periods of tearfulness or sobbing that seem to indicate sadness?", "preferredTerm": "NPI - Periods of Tearfulness or Sobbing", "submissionValue": "NPI1-Tearfulness or Sobbing", "synonyms": ["NPI1-Tearfulness or Sobbing"]}, {"conceptId": "C100666", "definition": "Neuropsychiatric Inventory - Does the patient seem too cheerful or too happy for no reason? I don't mean the normal happiness that comes from seeing friends, receiving presents, or spending time with family members. I am asking if the patient has a persistent and abnormally good mood or finds humor where others do not.", "preferredTerm": "NPI - Seem Too Cheerful or Too Happy for No Reason", "submissionValue": "NPI1-Too Cheerful or Happy", "synonyms": ["NPI1-Too Cheerful or Happy"]}, {"conceptId": "C100643", "definition": "Neuropsychiatric Inventory - Is the patient uncooperative, resistive to help from others?", "preferredTerm": "NPI - Uncooperative", "submissionValue": "NPI1-Uncooperative", "synonyms": ["NPI1-Uncooperative"]}, {"conceptId": "C100626", "definition": "Neuropsychiatric Inventory - Does the patient believe that unwelcome guests are living in his/her house?", "preferredTerm": "NPI - Unwelcome Guests are Living in His/Her House", "submissionValue": "NPI1-Unwelcome Guests in House", "synonyms": ["NPI1-Unwelcome Guests in House"]}, {"conceptId": "C100712", "definition": "Neuropsychiatric Inventory - Does the patient wake up at night, dress, and plan to go out thinking that it is morning and time to start the day?", "preferredTerm": "NPI - Wake Up at Night, Dress, and Plan to Go Out", "submissionValue": "NPI1-Wake at Night and Think Morning", "synonyms": ["NPI1-Wake at Night and Think Morning"]}, {"conceptId": "C100710", "definition": "Neuropsychiatric Inventory - Does the patient wander, pace or get involved in inappropriate activities at night?", "preferredTerm": "NPI - Wander, Pace or Get Involved in Inappropriate Activities at Night", "submissionValue": "NPI1-Wander or Pace at Night", "synonyms": ["NPI1-Wander or Pace at Night"]}, {"conceptId": "C100720", "definition": "Neuropsychiatric Inventory - Has he/she gained weight?", "preferredTerm": "NPI - Gained Weight", "submissionValue": "NPI1-Weight Gain", "synonyms": ["NPI1-Weight Gain"]}, {"conceptId": "C100719", "definition": "Neuropsychiatric Inventory - Has he/she had a loss of weight?", "preferredTerm": "NPI - Loss of Weight", "submissionValue": "NPI1-Weight Loss", "synonyms": ["NPI1-Weight Loss"]}, {"conceptId": "C100656", "definition": "Neuropsychiatric Inventory - Does the patient express a wish for death or talk about killing himself/herself?", "preferredTerm": "NPI - Express a Wish for Death", "submissionValue": "NPI1-Wish for Death", "synonyms": ["NPI1-Wish for Death"]}, {"conceptId": "C100659", "definition": "Neuropsychiatric Inventory - Does the patient say that he/she is worried about planned events?", "preferredTerm": "NPI - Say That He/She is Worried About Planned Events", "submissionValue": "NPI1-Worried about Planned Event", "synonyms": ["NPI1-Worried about Planned Event"]}]}