{"_links": {"parentPackage": {"href": "/mdr/ct/packages/sdtmct-2019-09-27", "title": "SDTM Controlled Terminology Package 39 Effective 2019-09-27", "type": "Terminology"}, "priorVersion": {"href": "/mdr/ct/packages/sdtmct-2019-06-28/codelists/C100139", "title": "CDISC Questionnaire MDS-UPDRS Test Name Terminology", "type": "Code List"}, "rootItem": {"href": "/mdr/root/ct/sdtmct/codelists/C100139", "title": "Version-agnostic anchor resource for codelist C100139", "type": "Root Value Domain"}, "self": {"href": "/mdr/ct/packages/sdtmct-2019-09-27/codelists/C100139", "title": "CDISC Questionnaire MDS-UPDRS Test Name Terminology", "type": "Code List"}}, "conceptId": "C100139", "definition": "The Movement Disorder Society version of the Unified Parkinson's Disease Rating Scale test name.", "extensible": "false", "name": "Movement Disorder Society Unified Parkinson's Disease Rating Scale Questionnaire Test Name", "preferredTerm": "CDISC Questionnaire MDS-UPDRS Test Name Terminology", "submissionValue": "UPD2TN", "synonyms": ["Movement Disorder Society Unified Parkinson's Disease Rating Scale Questionnaire Test Name"], "terms": [{"conceptId": "C100476", "definition": "The Movement Disorder Society version of the Unified Parkinson's Disease Rating Scale - Over the past week have you felt nervous, worried or tense? If yes, was this feeling for longer than one day at a time? Did it make it difficult for you to follow your usual activities or to be with other people?", "preferredTerm": "MDS-UPDRS - Anxious Mood", "submissionValue": "UPD2-Anxious Mood", "synonyms": ["UPD2-Anxious Mood"]}, {"conceptId": "C100477", "definition": "The Movement Disorder Society version of the Unified Parkinson's Disease Rating Scale - Over the past week, have you felt indifferent to doing activities or being with people?", "preferredTerm": "MDS-UPDRS - Apathy", "submissionValue": "UPD2-Apathy", "synonyms": ["UPD2-Apathy"]}, {"conceptId": "C100519", "definition": "The Movement Disorder Society version of the Unified Parkinson's Disease Rating Scale - Arising from Chair.", "preferredTerm": "MDS-UPDRS - Arising from Chair", "submissionValue": "UPD2-Arising from Chair", "synonyms": ["UPD2-Arising from Chair"]}, {"conceptId": "C100524", "definition": "The Movement Disorder Society version of the Unified Parkinson's Disease Rating Scale - Global Spontaneity of Movement (Body Bradykinesia).", "preferredTerm": "MDS-UPDRS - Body Bradykinesia", "submissionValue": "UPD2-Body Bradykinesia", "synonyms": ["UPD2-Body Bradykinesia"]}, {"conceptId": "C100488", "definition": "The Movement Disorder Society version of the Unified Parkinson's Disease Rating Scale - Over the past week, have you usually had problems swallowing pills or eating meals?", "preferredTerm": "MDS-UPDRS - Chewing and Swallowing", "submissionValue": "UPD2-Chewing and Swallowing", "synonyms": ["UPD2-Chewing and Swallowing"]}, {"conceptId": "C100499", "definition": "The Movement Disorder Society version of the Unified Parkinson's Disease Rating Scale - If the patient is receiving medication for treating the symptoms of Parkinson's Disease, mark the patient's clinical state.", "preferredTerm": "MDS-UPDRS - Clinical State on Medication", "submissionValue": "UPD2-Clinical State on Meds", "synonyms": ["UPD2-Clinical State on Meds"]}, {"conceptId": "C100473", "definition": "The Movement Disorder Society version of the Unified Parkinson's Disease Rating Scale - Over the past week have you had problems remembering things, following conversations, paying attention, thinking clearly, or finding your way around the house or in town?", "preferredTerm": "MDS-UPDRS - Cognitive Impairment", "submissionValue": "UPD2-Cognitive Impairment", "synonyms": ["UPD2-Cognitive Impairment"]}, {"conceptId": "C100540", "definition": "The Movement Disorder Society version of the Unified Parkinson's Disease Rating Scale - Complexity of Motor Fluctuations.", "preferredTerm": "MDS-UPDRS - Complexity of Motor Fluctuations", "submissionValue": "UPD2-Complexity Motor Fluctuations", "synonyms": ["UPD2-Complexity Motor Fluctuations"]}, {"conceptId": "C100532", "definition": "The Movement Disorder Society version of the Unified Parkinson's Disease Rating Scale - Consistency of Rest Tremor.", "preferredTerm": "MDS-UPDRS - Consistency of Rest Tremor", "submissionValue": "UPD2-Consistency of Rest Tremor", "synonyms": ["UPD2-Consistency of Rest Tremor"]}, {"conceptId": "C100483", "definition": "The Movement Disorder Society version of the Unified Parkinson's Disease Rating Scale - Over the past week have you had constipation troubles that cause you difficulty moving your bowels?", "preferredTerm": "MDS-UPDRS - Constipation Problems", "submissionValue": "UPD2-Constipation Problems", "synonyms": ["UPD2-Constipation Problems"]}, {"conceptId": "C100480", "definition": "The Movement Disorder Society version of the Unified Parkinson's Disease Rating Scale - Over the past week, have you had trouble staying awake during the daytime?", "preferredTerm": "MDS-UPDRS - Daytime Sleepiness", "submissionValue": "UPD2-Daytime Sleepiness", "synonyms": ["UPD2-Daytime Sleepiness"]}, {"conceptId": "C100475", "definition": "The Movement Disorder Society version of the Unified Parkinson's Disease Rating Scale - Over the past week have you felt low, sad, hopeless or unable to enjoy things? If yes, was this feeling for longer than one day at a time? Did it make it difficult for you carry out your usual activities or to be with people?", "preferredTerm": "MDS-UPDRS - Depressed Mood", "submissionValue": "UPD2-Depressed Mood", "synonyms": ["UPD2-Depressed Mood"]}, {"conceptId": "C100493", "definition": "The Movement Disorder Society version of the Unified Parkinson's Disease Rating Scale - Over the past week, have you usually had trouble doing your hobbies or other things that you like to do?", "preferredTerm": "MDS-UPDRS - Doing Hobbies and Other Activities", "submissionValue": "UPD2-Doing Hobbies/Other Activities", "synonyms": ["UPD2-Doing Hobbies/Other Activities"]}, {"conceptId": "C100490", "definition": "The Movement Disorder Society version of the Unified Parkinson's Disease Rating Scale - Over the past week, have you usually had problems dressing?", "preferredTerm": "MDS-UPDRS - Dressing", "submissionValue": "UPD2-Dressing", "synonyms": ["UPD2-Dressing"]}, {"conceptId": "C100533", "definition": "The Movement Disorder Society version of the Unified Parkinson's Disease Rating Scale - Were dyskinesias (chorea or dystonia) present during examination?", "preferredTerm": "MDS-UPDRS - Dyskinesias During Exam", "submissionValue": "UPD2-Dyskinesias During Exam", "synonyms": ["UPD2-Dyskinesias During Exam"]}, {"conceptId": "C100489", "definition": "The Movement Disorder Society version of the Unified Parkinson's Disease Rating Scale - Over the past week, have you usually had troubles handling your food and using eating utensils?", "preferredTerm": "MDS-UPDRS - Eating Tasks", "submissionValue": "UPD2-Eating Tasks", "synonyms": ["UPD2-Eating Tasks"]}, {"conceptId": "C100503", "definition": "The Movement Disorder Society version of the Unified Parkinson's Disease Rating Scale - Facial Expression.", "preferredTerm": "MDS-UPDRS - Facial Expression", "submissionValue": "UPD2-Facial Expression", "synonyms": ["UPD2-Facial Expression"]}, {"conceptId": "C100485", "definition": "The Movement Disorder Society version of the Unified Parkinson's Disease Rating Scale - Over the past week, have you usually felt fatigued?", "preferredTerm": "MDS-UPDRS - Fatigue", "submissionValue": "UPD2-Fatigue", "synonyms": ["UPD2-Fatigue"]}, {"conceptId": "C100497", "definition": "The Movement Disorder Society version of the Unified Parkinson's Disease Rating Scale - Over the past week, on your usual day when walking, do you suddenly stop or freeze as if your feet are stuck to the floor?", "preferredTerm": "MDS-UPDRS - Freezing", "submissionValue": "UPD2-Freezing", "synonyms": ["UPD2-Freezing"]}, {"conceptId": "C100521", "definition": "The Movement Disorder Society version of the Unified Parkinson's Disease Rating Scale - Freezing of Gait.", "preferredTerm": "MDS-UPDRS - Freezing of Gait", "submissionValue": "UPD2-Freezing of Gait", "synonyms": ["UPD2-Freezing of Gait"]}, {"conceptId": "C100478", "definition": "The Movement Disorder Society version of the Unified Parkinson's Disease Rating Scale - Over the past week, have you had unusually strong urges that are hard to control? Do you feel driven to do or think about something and find it hard to stop?", "preferredTerm": "MDS-UPDRS - Features of Dopamine Dysregulation Syndrome", "submissionValue": "UPD2-Ftrs Dopa Dysregulation Synd", "synonyms": ["UPD2-Ftrs Dopa Dysregulation Synd"]}, {"conceptId": "C100537", "definition": "The Movement Disorder Society version of the Unified Parkinson's Disease Rating Scale - Functional Impact of Dyskinesias.", "preferredTerm": "MDS-UPDRS - Functional Impact of Dyskinesias", "submissionValue": "UPD2-Functional Impact Dyskinesias", "synonyms": ["UPD2-Functional Impact Dyskinesias"]}, {"conceptId": "C100539", "definition": "The Movement Disorder Society version of the Unified Parkinson's Disease Rating Scale - Functional Impact of Fluctuations.", "preferredTerm": "MDS-UPDRS - Functional Impact of Fluctuations", "submissionValue": "UPD2-Functional Impact Fluctuations", "synonyms": ["UPD2-Functional Impact Fluctuations"]}, {"conceptId": "C100520", "definition": "The Movement Disorder Society version of the Unified Parkinson's Disease Rating Scale - Gait.", "preferredTerm": "MDS-UPDRS - Gait", "submissionValue": "UPD2-Gait", "synonyms": ["UPD2-Gait"]}, {"conceptId": "C101018", "definition": "The Movement Disorder Society version of the Unified Parkinson's Disease Rating Scale - Over the past week, have you usually had trouble getting out of bed, a car seat, or a deep chair?", "preferredTerm": "MDS-UPDRS - Get Out of Bed, Car, or Deep Chair", "submissionValue": "UPD2-Get Out of Bed/Car/Deep Chair", "synonyms": ["UPD2-Get Out of Bed/Car/Deep Chair"]}, {"conceptId": "C100474", "definition": "The Movement Disorder Society version of the Unified Parkinson's Disease Rating Scale - Over the past week have you seen, heard, smelled or felt things that were not really there?", "preferredTerm": "MDS-UPDRS - Hallucinations and Psychosis", "submissionValue": "UPD2-Hallucinations and Psychosis", "synonyms": ["UPD2-Hallucinations and Psychosis"]}, {"conceptId": "C100492", "definition": "The Movement Disorder Society version of the Unified Parkinson's Disease Rating Scale - Over the past week, have people usually had trouble reading your handwriting?", "preferredTerm": "MDS-UPDRS - Handwriting", "submissionValue": "UPD2-Handwriting", "synonyms": ["UPD2-Handwriting"]}, {"conceptId": "C100535", "definition": "The Movement Disorder Society version of the Unified Parkinson's Disease Rating Scale - Hoehn and Yahr Stage.", "preferredTerm": "MDS-UPDRS - Hoehn and Yahr Stage", "submissionValue": "UPD2-Hoehn and Yahr Stage", "synonyms": ["UPD2-Hoehn and Yahr Stage"]}, {"conceptId": "C100491", "definition": "The Movement Disorder Society version of the Unified Parkinson's Disease Rating Scale - Over the past week, have you usually been slow or do you need help with washing, bathing, shaving, brushing teeth, combing your hair or with other personal hygiene?", "preferredTerm": "MDS-UPDRS - Hygiene", "submissionValue": "UPD2-Hygiene", "synonyms": ["UPD2-Hygiene"]}, {"conceptId": "C100526", "definition": "The Movement Disorder Society version of the Unified Parkinson's Disease Rating Scale - Kinetic Tremor of the Left Hand.", "preferredTerm": "MDS-UPDRS - Kinetic Tremor of Left Hand", "submissionValue": "UPD2-Kinetic Tremor of Left Hand", "synonyms": ["UPD2-Kinetic Tremor of Left Hand"]}, {"conceptId": "C113883", "definition": "The Movement Disorder Society version of the Unified Parkinson's Disease Rating Scale - Kinetic Tremor of the Right Hand.", "preferredTerm": "MDS-UPDRS - Kinetic Tremor of Right Hand", "submissionValue": "UPD2-Kinetic Tremor of Right Hand", "synonyms": ["UPD2-Kinetic Tremor of Right Hand"]}, {"conceptId": "C100510", "definition": "The Movement Disorder Society version of the Unified Parkinson's Disease Rating Scale - Left Finger Tapping.", "preferredTerm": "MDS-UPDRS - Left Finger Tapping", "submissionValue": "UPD2-Left Finger Tapping", "synonyms": ["UPD2-Left Finger Tapping"]}, {"conceptId": "C100512", "definition": "The Movement Disorder Society version of the Unified Parkinson's Disease Rating Scale - Left Hand Movements.", "preferredTerm": "MDS-UPDRS - Left Hand Movements", "submissionValue": "UPD2-Left Hand Movements", "synonyms": ["UPD2-Left Hand Movements"]}, {"conceptId": "C100518", "definition": "The Movement Disorder Society version of the Unified Parkinson's Disease Rating Scale - Left Leg Agility.", "preferredTerm": "MDS-UPDRS - Left Leg Agility", "submissionValue": "UPD2-Left Leg Agility", "synonyms": ["UPD2-Left Leg Agility"]}, {"conceptId": "C100516", "definition": "The Movement Disorder Society version of the Unified Parkinson's Disease Rating Scale - Left Toe Tapping.", "preferredTerm": "MDS-UPDRS - Left Toe Tapping", "submissionValue": "UPD2-Left Toe Tapping", "synonyms": ["UPD2-Left Toe Tapping"]}, {"conceptId": "C100484", "definition": "The Movement Disorder Society version of the Unified Parkinson's Disease Rating Scale - Over the past week, have you felt faint, dizzy or foggy when you stand up after sitting or lying down?", "preferredTerm": "MDS-UPDRS - Lightheadedness on Standing", "submissionValue": "UPD2-Lightheadedness on Standing", "synonyms": ["UPD2-Lightheadedness on Standing"]}, {"conceptId": "C100498", "definition": "The Movement Disorder Society version of the Unified Parkinson's Disease Rating Scale - Is the patient on medication for treating the symptoms of Parkinson's Disease?", "preferredTerm": "MDS-UPDRS - Medication for Parkinson's Disease", "submissionValue": "UPD2-Medication for PD", "synonyms": ["UPD2-Medication for PD"]}, {"conceptId": "C100501", "definition": "The Movement Disorder Society version of the Unified Parkinson's Disease Rating Scale - Minutes since last Levodopa dose.", "preferredTerm": "MDS-UPDRS - Minutes Since Levodopa Dose", "submissionValue": "UPD2-Minutes Since Levodopa Dose", "synonyms": ["UPD2-Minutes Since Levodopa Dose"]}, {"conceptId": "C100534", "definition": "The Movement Disorder Society version of the Unified Parkinson's Disease Rating Scale - If yes, did these movements interfere with your ratings?", "preferredTerm": "MDS-UPDRS - Movements Interfere with Ratings", "submissionValue": "UPD2-Movements Interfere Ratings", "synonyms": ["UPD2-Movements Interfere Ratings"]}, {"conceptId": "C100481", "definition": "The Movement Disorder Society version of the Unified Parkinson's Disease Rating Scale - Over the past week, have you had uncomfortable feelings in your body like pain, aches tingling or cramps?", "preferredTerm": "MDS-UPDRS - Pain and Other Sensations", "submissionValue": "UPD2-Pain and other Sensations", "synonyms": ["UPD2-Pain and other Sensations"]}, {"conceptId": "C100541", "definition": "The Movement Disorder Society version of the Unified Parkinson's Disease Rating Scale - Painful Off-state Dystonia.", "preferredTerm": "MDS-UPDRS - Painful Off-state Dystonia", "submissionValue": "UPD2-Painful Off-state Dystonia", "synonyms": ["UPD2-Painful Off-state Dystonia"]}, {"conceptId": "C100522", "definition": "The Movement Disorder Society version of the Unified Parkinson's Disease Rating Scale - Postural Stability.", "preferredTerm": "MDS-UPDRS - Postural Stability", "submissionValue": "UPD2-Postural Stability", "synonyms": ["UPD2-Postural Stability"]}, {"conceptId": "C113882", "definition": "The Movement Disorder Society version of the Unified Parkinson's Disease Rating Scale - Postural Tremor of the Left Hand.", "preferredTerm": "MDS-UPDRS - Postural Tremor of Left Hand", "submissionValue": "UPD2-Postural Tremor of Left Hand", "synonyms": ["UPD2-Postural Tremor of Left Hand"]}, {"conceptId": "C100525", "definition": "The Movement Disorder Society version of the Unified Parkinson's Disease Rating Scale - Postural Tremor of the Right Hand.", "preferredTerm": "MDS-UPDRS - Postural Tremor of Right Hand", "submissionValue": "UPD2-Postural Tremor of Right Hand", "synonyms": ["UPD2-Postural Tremor of Right Hand"]}, {"conceptId": "C100523", "definition": "The Movement Disorder Society version of the Unified Parkinson's Disease Rating Scale - Posture.", "preferredTerm": "MDS-UPDRS - Posture", "submissionValue": "UPD2-Posture", "synonyms": ["UPD2-Posture"]}, {"conceptId": "C100514", "definition": "The Movement Disorder Society version of the Unified Parkinson's Disease Rating Scale - Pronation-Supination Movements of Left Hand.", "preferredTerm": "MDS-UPDRS - Pronanation-Supination Movement of Left Hand", "submissionValue": "UPD2-Pron/Sup Movement of Left Hand", "synonyms": ["UPD2-Pron/Sup Movement of Left Hand"]}, {"conceptId": "C100513", "definition": "The Movement Disorder Society version of the Unified Parkinson's Disease Rating Scale - Pronation-Supination Movements of Right Hand.", "preferredTerm": "MDS-UPDRS - Pronanation-Supination Movement of Right Hand", "submissionValue": "UPD2-Pron/Sup Movement of RT Hand", "synonyms": ["UPD2-Pron/Sup Movement of RT Hand"]}, {"conceptId": "C100530", "definition": "The Movement Disorder Society version of the Unified Parkinson's Disease Rating Scale - Rest Tremor Amplitude Left Lower Extremity.", "preferredTerm": "MDS-UPDRS - Rest Tremor Amplitude Left Lower Extremity", "submissionValue": "UPD2-Rest Tremor Amplitude LLE", "synonyms": ["UPD2-Rest Tremor Amplitude LLE"]}, {"conceptId": "C100528", "definition": "The Movement Disorder Society version of the Unified Parkinson's Disease Rating Scale - Rest Tremor Amplitude Left Upper Extremity.", "preferredTerm": "MDS-UPDRS - Rest Tremor Amplitude Left Upper Extremity", "submissionValue": "UPD2-Rest Tremor Amplitude LUE", "synonyms": ["UPD2-Rest Tremor Amplitude LUE"]}, {"conceptId": "C100531", "definition": "The Movement Disorder Society version of the Unified Parkinson's Disease Rating Scale - Rest Tremor Amplitude Lip/Jaw.", "preferredTerm": "MDS-UPDRS - Rest Tremor Amplitude Lip or Jaw", "submissionValue": "UPD2-Rest Tremor Amplitude Lip/Jaw", "synonyms": ["UPD2-Rest Tremor Amplitude Lip/Jaw"]}, {"conceptId": "C100529", "definition": "The Movement Disorder Society version of the Unified Parkinson's Disease Rating Scale - Rest Tremor Amplitude Right Lower Extremity.", "preferredTerm": "MDS-UPDRS - Rest Tremor Amplitude Right Lower Extremity", "submissionValue": "UPD2-Rest Tremor Amplitude RLE", "synonyms": ["UPD2-Rest Tremor Amplitude RLE"]}, {"conceptId": "C100527", "definition": "The Movement Disorder Society version of the Unified Parkinson's Disease Rating Scale - Rest Tremor Amplitude Right Upper Extremity.", "preferredTerm": "MDS-UPDRS - Rest Tremor Amplitude Right Upper Extremity", "submissionValue": "UPD2-Rest Tremor Amplitude RUE", "synonyms": ["UPD2-Rest Tremor Amplitude RUE"]}, {"conceptId": "C100509", "definition": "The Movement Disorder Society version of the Unified Parkinson's Disease Rating Scale - Right Finger Tapping.", "preferredTerm": "MDS-UPDRS - Right Finger Tapping", "submissionValue": "UPD2-Right Finger Tapping", "synonyms": ["UPD2-Right Finger Tapping"]}, {"conceptId": "C100511", "definition": "The Movement Disorder Society version of the Unified Parkinson's Disease Rating Scale - Right Hand Movements.", "preferredTerm": "MDS-UPDRS - Right Hand Movements", "submissionValue": "UPD2-Right Hand Movements", "synonyms": ["UPD2-Right Hand Movements"]}, {"conceptId": "C100517", "definition": "The Movement Disorder Society version of the Unified Parkinson's Disease Rating Scale - Right Leg Agility.", "preferredTerm": "MDS-UPDRS - Right Leg Agility", "submissionValue": "UPD2-Right Leg Agility", "synonyms": ["UPD2-Right Leg Agility"]}, {"conceptId": "C100515", "definition": "The Movement Disorder Society version of the Unified Parkinson's Disease Rating Scale - Right Toe Tapping.", "preferredTerm": "MDS-UPDRS - Right Toe Tapping", "submissionValue": "UPD2-Right Toe Tapping", "synonyms": ["UPD2-Right Toe Tapping"]}, {"conceptId": "C100508", "definition": "The Movement Disorder Society version of the Unified Parkinson's Disease Rating Scale - Rigidity Left Lower Extremity.", "preferredTerm": "MDS-UPDRS - Rigidity Left Lower Extremity", "submissionValue": "UPD2-Rigidity Left Lower Extremity", "synonyms": ["UPD2-Rigidity Left Lower Extremity"]}, {"conceptId": "C100506", "definition": "The Movement Disorder Society version of the Unified Parkinson's Disease Rating Scale - Rigidity Left Upper Extremity.", "preferredTerm": "MDS-UPDRS - Rigidity Left Upper Extremity", "submissionValue": "UPD2-Rigidity Left Upper Extremity", "synonyms": ["UPD2-Rigidity Left Upper Extremity"]}, {"conceptId": "C100504", "definition": "The Movement Disorder Society version of the Unified Parkinson's Disease Rating Scale - Rigidity Neck.", "preferredTerm": "MDS-UPDRS - Rigidity Neck", "submissionValue": "UPD2-Rigidity Neck", "synonyms": ["UPD2-Rigidity Neck"]}, {"conceptId": "C100507", "definition": "The Movement Disorder Society version of the Unified Parkinson's Disease Rating Scale - Rigidity Right Lower Extremity.", "preferredTerm": "MDS-UPDRS - Rigidity Right Lower Extremity", "submissionValue": "UPD2-Rigidity RT Lower Extremity", "synonyms": ["UPD2-Rigidity RT Lower Extremity"]}, {"conceptId": "C100505", "definition": "The Movement Disorder Society version of the Unified Parkinson's Disease Rating Scale - Rigidity Right Upper Extremity.", "preferredTerm": "MDS-UPDRS - Rigidity Right Upper Extremity", "submissionValue": "UPD2-Rigidity RT Upper Extremity", "synonyms": ["UPD2-Rigidity RT Upper Extremity"]}, {"conceptId": "C100487", "definition": "The Movement Disorder Society version of the Unified Parkinson's Disease Rating Scale - Over the past week, have you usually had too much saliva during when you are awake or when you sleep?", "preferredTerm": "MDS-UPDRS - Saliva and Drooling", "submissionValue": "UPD2-Saliva and Drooling", "synonyms": ["UPD2-Saliva and Drooling"]}, {"conceptId": "C100479", "definition": "The Movement Disorder Society version of the Unified Parkinson's Disease Rating Scale - Over the past week, have you had trouble going to sleep at night or staying asleep through the night?", "preferredTerm": "MDS-UPDRS - Sleep Problems", "submissionValue": "UPD2-Sleep Problems", "synonyms": ["UPD2-Sleep Problems"]}, {"conceptId": "C100486", "definition": "The Movement Disorder Society version of the Unified Parkinson's Disease Rating Scale - Over the past week, have you had problems with your speech?", "preferredTerm": "MDS-UPDRS - Speech", "submissionValue": "UPD2-Speech", "synonyms": ["UPD2-Speech"]}, {"conceptId": "C100502", "definition": "The Movement Disorder Society version of the Unified Parkinson's Disease Rating Scale - Speech Problems.", "preferredTerm": "MDS-UPDRS - Speech Problems", "submissionValue": "UPD2-Speech Problems", "synonyms": ["UPD2-Speech Problems"]}, {"conceptId": "C100500", "definition": "The Movement Disorder Society version of the Unified Parkinson's Disease Rating Scale - Is the patient on Levodopa?", "preferredTerm": "MDS-UPDRS - Taking Levodopa", "submissionValue": "UPD2-Taking Levodopa", "synonyms": ["UPD2-Taking Levodopa"]}, {"conceptId": "C100538", "definition": "The Movement Disorder Society version of the Unified Parkinson's Disease Rating Scale - Time Spent in the Off State.", "preferredTerm": "MDS-UPDRS - Time Spent in the Off State", "submissionValue": "UPD2-Time Spent in the Off State", "synonyms": ["UPD2-Time Spent in the Off State"]}, {"conceptId": "C100536", "definition": "The Movement Disorder Society version of the Unified Parkinson's Disease Rating Scale - Time Spent with Dyskinesias.", "preferredTerm": "MDS-UPDRS - Time Spent with Dyskinesias", "submissionValue": "UPD2-Time Spent with Dyskinesias", "synonyms": ["UPD2-Time Spent with Dyskinesias"]}, {"conceptId": "C100495", "definition": "The Movement Disorder Society version of the Unified Parkinson's Disease Rating Scale - Over the past week, have you usually had shaking or tremor?", "preferredTerm": "MDS-UPDRS - Tremor", "submissionValue": "UPD2-Tremor", "synonyms": ["UPD2-Tremor"]}, {"conceptId": "C100494", "definition": "The Movement Disorder Society version of the Unified Parkinson's Disease Rating Scale - Over the past week, do you usually have trouble turning over in bed?", "preferredTerm": "MDS-UPDRS - Turning in Bed", "submissionValue": "UPD2-Turning in Bed", "synonyms": ["UPD2-Turning in Bed"]}, {"conceptId": "C100482", "definition": "The Movement Disorder Society version of the Unified Parkinson's Disease Rating Scale - Over the past week, have you had trouble with urine control?", "preferredTerm": "MDS-UPDRS - Urinary Problems", "submissionValue": "UPD2-Urinary Problems", "synonyms": ["UPD2-Urinary Problems"]}, {"conceptId": "C100496", "definition": "The Movement Disorder Society version of the Unified Parkinson's Disease Rating Scale - Over the past week, have you usually had problems with balance and walking?", "preferredTerm": "MDS-UPDRS - Walking and Balance", "submissionValue": "UPD2-Walking and Balance", "synonyms": ["UPD2-Walking and Balance"]}]}