{"_links": {"parentPackage": {"href": "/mdr/ct/packages/sdtmct-2019-09-27", "title": "SDTM Controlled Terminology Package 39 Effective 2019-09-27", "type": "Terminology"}, "priorVersion": {"href": "/mdr/ct/packages/sdtmct-2019-06-28/codelists/C101808", "title": "CDISC Functional Test ADNI AVLT Test Name Terminology", "type": "Code List"}, "rootItem": {"href": "/mdr/root/ct/sdtmct/codelists/C101808", "title": "Version-agnostic anchor resource for codelist C101808", "type": "Root Value Domain"}, "self": {"href": "/mdr/ct/packages/sdtmct-2019-09-27/codelists/C101808", "title": "CDISC Functional Test ADNI AVLT Test Name Terminology", "type": "Code List"}}, "conceptId": "C101808", "definition": "ADNI AVLT test name.", "extensible": "false", "name": "ADNI Auditory Verbal Learning Functional Test Test Name", "preferredTerm": "CDISC Functional Test ADNI AVLT Test Name Terminology", "submissionValue": "AVL01TN", "synonyms": ["ADNI Auditory Verbal Learning Functional Test Test Name"], "terms": [{"conceptId": "C102031", "definition": "Auditory Verbal Learning Test Version A - The number of intrusions while recalling List A, 30 Minute Delay.", "preferredTerm": "ADNI AVLT - List A 30 Min Delay Intrusions", "submissionValue": "AVL01-List A 30 Min Delay Intrusions", "synonyms": ["AVL01-List A 30 Min Delay Intrusions"]}, {"conceptId": "C102030", "definition": "Auditory Verbal Learning Test Version A - The number of words recalled from List A, 30 Minute Delay recall.", "preferredTerm": "ADNI AVLT - List A 30 Min Delay Recall Total", "submissionValue": "AVL01-List A 30 Min Delay Recall Total", "synonyms": ["AVL01-List A 30 Min Delay Recall Total"]}, {"conceptId": "C102015", "definition": "Auditory Verbal Learning Test Version A - List A, 30 Minute Delay Recall, Word 1.", "preferredTerm": "ADNI AVLT - List A 30 Min Delay Recall Word 1", "submissionValue": "AVL01-List A 30 Min Delay Recall Word 1", "synonyms": ["AVL01-List A 30 Min Delay Recall Word 1"]}, {"conceptId": "C102024", "definition": "Auditory Verbal Learning Test Version A - List A, 30 Minute Delay Recall, Word 10.", "preferredTerm": "ADNI AVLT - List A 30 Min Delay Recall Word 10", "submissionValue": "AVL01-List A 30 Min Delay Recall Word 10", "synonyms": ["AVL01-List A 30 Min Delay Recall Word 10"]}, {"conceptId": "C102025", "definition": "Auditory Verbal Learning Test Version A - List A, 30 Minute Delay Recall, Word 11.", "preferredTerm": "ADNI AVLT - List A 30 Min Delay Recall Word 11", "submissionValue": "AVL01-List A 30 Min Delay Recall Word 11", "synonyms": ["AVL01-List A 30 Min Delay Recall Word 11"]}, {"conceptId": "C102026", "definition": "Auditory Verbal Learning Test Version A - List A, 30 Minute Delay Recall, Word 12.", "preferredTerm": "ADNI AVLT - List A 30 Min Delay Recall Word 12", "submissionValue": "AVL01-List A 30 Min Delay Recall Word 12", "synonyms": ["AVL01-List A 30 Min Delay Recall Word 12"]}, {"conceptId": "C102027", "definition": "Auditory Verbal Learning Test Version A - List A, 30 Minute Delay Recall, Word 13.", "preferredTerm": "ADNI AVLT - List A 30 Min Delay Recall Word 13", "submissionValue": "AVL01-List A 30 Min Delay Recall Word 13", "synonyms": ["AVL01-List A 30 Min Delay Recall Word 13"]}, {"conceptId": "C102028", "definition": "Auditory Verbal Learning Test Version A - List A, 30 Minute Delay Recall, Word 14.", "preferredTerm": "ADNI AVLT - List A 30 Min Delay Recall Word 14", "submissionValue": "AVL01-List A 30 Min Delay Recall Word 14", "synonyms": ["AVL01-List A 30 Min Delay Recall Word 14"]}, {"conceptId": "C102029", "definition": "Auditory Verbal Learning Test Version A - List A, 30 Minute Delay Recall, Word 15.", "preferredTerm": "ADNI AVLT - List A 30 Min Delay Recall Word 15", "submissionValue": "AVL01-List A 30 Min Delay Recall Word 15", "synonyms": ["AVL01-List A 30 Min Delay Recall Word 15"]}, {"conceptId": "C102016", "definition": "Auditory Verbal Learning Test Version A - List A, 30 Minute Delay Recall, Word 2.", "preferredTerm": "ADNI AVLT - List A 30 Min Delay Recall Word 2", "submissionValue": "AVL01-List A 30 Min Delay Recall Word 2", "synonyms": ["AVL01-List A 30 Min Delay Recall Word 2"]}, {"conceptId": "C102017", "definition": "Auditory Verbal Learning Test Version A - List A, 30 Minute Delay Recall, Word 3.", "preferredTerm": "ADNI AVLT - List A 30 Min Delay Recall Word 3", "submissionValue": "AVL01-List A 30 Min Delay Recall Word 3", "synonyms": ["AVL01-List A 30 Min Delay Recall Word 3"]}, {"conceptId": "C102018", "definition": "Auditory Verbal Learning Test Version A - List A, 30 Minute Delay Recall, Word 4.", "preferredTerm": "ADNI AVLT - List A 30 Min Delay Recall Word 4", "submissionValue": "AVL01-List A 30 Min Delay Recall Word 4", "synonyms": ["AVL01-List A 30 Min Delay Recall Word 4"]}, {"conceptId": "C102019", "definition": "Auditory Verbal Learning Test Version A - List A, 30 Minute Delay Recall, Word 5.", "preferredTerm": "ADNI AVLT - List A 30 Min Delay Recall Word 5", "submissionValue": "AVL01-List A 30 Min Delay Recall Word 5", "synonyms": ["AVL01-List A 30 Min Delay Recall Word 5"]}, {"conceptId": "C102020", "definition": "Auditory Verbal Learning Test Version A - List A, 30 Minute Delay Recall, Word 6.", "preferredTerm": "ADNI AVLT - List A 30 Min Delay Recall Word 6", "submissionValue": "AVL01-List A 30 Min Delay Recall Word 6", "synonyms": ["AVL01-List A 30 Min Delay Recall Word 6"]}, {"conceptId": "C102021", "definition": "Auditory Verbal Learning Test Version A - List A, 30 Minute Delay Recall, Word 7.", "preferredTerm": "ADNI AVLT - List A 30 Min Delay Recall Word 7", "submissionValue": "AVL01-List A 30 Min Delay Recall Word 7", "synonyms": ["AVL01-List A 30 Min Delay Recall Word 7"]}, {"conceptId": "C102022", "definition": "Auditory Verbal Learning Test Version A - List A, 30 Minute Delay Recall, Word 8.", "preferredTerm": "ADNI AVLT - List A 30 Min Delay Recall Word 8", "submissionValue": "AVL01-List A 30 Min Delay Recall Word 8", "synonyms": ["AVL01-List A 30 Min Delay Recall Word 8"]}, {"conceptId": "C102023", "definition": "Auditory Verbal Learning Test Version A - List A, 30 Minute Delay Recall, Word 9.", "preferredTerm": "ADNI AVLT - List A 30 Min Delay Recall Word 9", "submissionValue": "AVL01-List A 30 Min Delay Recall Word 9", "synonyms": ["AVL01-List A 30 Min Delay Recall Word 9"]}, {"conceptId": "C101912", "definition": "Auditory Verbal Learning Test Version A - The number of intrusions while recalling List A, first attempt.", "preferredTerm": "ADNI AVLT - List A Intrusions 1", "submissionValue": "AVL01-List A Intrusions 1", "synonyms": ["AVL01-List A Intrusions 1"]}, {"conceptId": "C101929", "definition": "Auditory Verbal Learning Test Version A - The number of intrusions while recalling List A, second attempt.", "preferredTerm": "ADNI AVLT - List A Intrusions 2", "submissionValue": "AVL01-List A Intrusions 2", "synonyms": ["AVL01-List A Intrusions 2"]}, {"conceptId": "C101946", "definition": "Auditory Verbal Learning Test Version A - The number of intrusions while recalling List A, third attempt.", "preferredTerm": "ADNI AVLT - List A Intrusions 3", "submissionValue": "AVL01-List A Intrusions 3", "synonyms": ["AVL01-List A Intrusions 3"]}, {"conceptId": "C101963", "definition": "Auditory Verbal Learning Test Version A - The number of intrusions while recalling List A, fourth attempt.", "preferredTerm": "ADNI AVLT - List A Intrusions 4", "submissionValue": "AVL01-List A Intrusions 4", "synonyms": ["AVL01-List A Intrusions 4"]}, {"conceptId": "C101980", "definition": "Auditory Verbal Learning Test Version A - The number of intrusions while recalling List A, fifth attempt.", "preferredTerm": "ADNI AVLT - List A Intrusions 5", "submissionValue": "AVL01-List A Intrusions 5", "synonyms": ["AVL01-List A Intrusions 5"]}, {"conceptId": "C101997", "definition": "Auditory Verbal Learning Test Version A - The number of intrusions while recalling List A, sixth attempt (after List B recall).", "preferredTerm": "ADNI AVLT - List A Intrusions 6", "submissionValue": "AVL01-List A Intrusions 6", "synonyms": ["AVL01-List A Intrusions 6"]}, {"conceptId": "C101911", "definition": "Auditory Verbal Learning Test Version A - The number of words recalled from List A, first attempt.", "preferredTerm": "ADNI AVLT - List A Recall 1 Total", "submissionValue": "AVL01-List A Recall 1 Total", "synonyms": ["AVL01-List A Recall 1 Total"]}, {"conceptId": "C101896", "definition": "Auditory Verbal Learning Test Version A - List A, Recall 1, Word 1.", "preferredTerm": "ADNI AVLT - List A Recall 1 Word 1", "submissionValue": "AVL01-List A Recall 1 Word 1", "synonyms": ["AVL01-List A Recall 1 Word 1"]}, {"conceptId": "C101905", "definition": "Auditory Verbal Learning Test Version A - List A, Recall 1, Word 10.", "preferredTerm": "ADNI AVLT - List A Recall 1 Word 10", "submissionValue": "AVL01-List A Recall 1 Word 10", "synonyms": ["AVL01-List A Recall 1 Word 10"]}, {"conceptId": "C101906", "definition": "Auditory Verbal Learning Test Version A - List A, Recall 1, Word 11.", "preferredTerm": "ADNI AVLT - List A Recall 1 Word 11", "submissionValue": "AVL01-List A Recall 1 Word 11", "synonyms": ["AVL01-List A Recall 1 Word 11"]}, {"conceptId": "C101907", "definition": "Auditory Verbal Learning Test Version A - List A, Recall 1, Word 12.", "preferredTerm": "ADNI AVLT - List A Recall 1 Word 12", "submissionValue": "AVL01-List A Recall 1 Word 12", "synonyms": ["AVL01-List A Recall 1 Word 12"]}, {"conceptId": "C101908", "definition": "Auditory Verbal Learning Test Version A - List A, Recall 1, Word 13.", "preferredTerm": "ADNI AVLT - List A Recall 1 Word 13", "submissionValue": "AVL01-List A Recall 1 Word 13", "synonyms": ["AVL01-List A Recall 1 Word 13"]}, {"conceptId": "C101909", "definition": "Auditory Verbal Learning Test Version A - List A, Recall 1, Word 14.", "preferredTerm": "ADNI AVLT - List A Recall 1 Word 14", "submissionValue": "AVL01-List A Recall 1 Word 14", "synonyms": ["AVL01-List A Recall 1 Word 14"]}, {"conceptId": "C101910", "definition": "Auditory Verbal Learning Test Version A - List A, Recall 1, Word 15.", "preferredTerm": "ADNI AVLT - List A Recall 1 Word 15", "submissionValue": "AVL01-List A Recall 1 Word 15", "synonyms": ["AVL01-List A Recall 1 Word 15"]}, {"conceptId": "C101897", "definition": "Auditory Verbal Learning Test Version A - List A, Recall 1, Word 2.", "preferredTerm": "ADNI AVLT - List A Recall 1 Word 2", "submissionValue": "AVL01-List A Recall 1 Word 2", "synonyms": ["AVL01-List A Recall 1 Word 2"]}, {"conceptId": "C101898", "definition": "Auditory Verbal Learning Test Version A - List A, Recall 1, Word 3.", "preferredTerm": "ADNI AVLT - List A Recall 1 Word 3", "submissionValue": "AVL01-List A Recall 1 Word 3", "synonyms": ["AVL01-List A Recall 1 Word 3"]}, {"conceptId": "C101899", "definition": "Auditory Verbal Learning Test Version A - List A, Recall 1, Word 4.", "preferredTerm": "ADNI AVLT - List A Recall 1 Word 4", "submissionValue": "AVL01-List A Recall 1 Word 4", "synonyms": ["AVL01-List A Recall 1 Word 4"]}, {"conceptId": "C101900", "definition": "Auditory Verbal Learning Test Version A - List A, Recall 1, Word 5.", "preferredTerm": "ADNI AVLT - List A Recall 1 Word 5", "submissionValue": "AVL01-List A Recall 1 Word 5", "synonyms": ["AVL01-List A Recall 1 Word 5"]}, {"conceptId": "C101901", "definition": "Auditory Verbal Learning Test Version A - List A, Recall 1, Word 6.", "preferredTerm": "ADNI AVLT - List A Recall 1 Word 6", "submissionValue": "AVL01-List A Recall 1 Word 6", "synonyms": ["AVL01-List A Recall 1 Word 6"]}, {"conceptId": "C101902", "definition": "Auditory Verbal Learning Test Version A - List A, Recall 1, Word 7.", "preferredTerm": "ADNI AVLT - List A Recall 1 Word 7", "submissionValue": "AVL01-List A Recall 1 Word 7", "synonyms": ["AVL01-List A Recall 1 Word 7"]}, {"conceptId": "C101903", "definition": "Auditory Verbal Learning Test Version A - List A, Recall 1, Word 8.", "preferredTerm": "ADNI AVLT - List A Recall 1 Word 8", "submissionValue": "AVL01-List A Recall 1 Word 8", "synonyms": ["AVL01-List A Recall 1 Word 8"]}, {"conceptId": "C101904", "definition": "Auditory Verbal Learning Test Version A - List A, Recall 1, Word 9.", "preferredTerm": "ADNI AVLT - List A Recall 1 Word 9", "submissionValue": "AVL01-List A Recall 1 Word 9", "synonyms": ["AVL01-List A Recall 1 Word 9"]}, {"conceptId": "C101928", "definition": "Auditory Verbal Learning Test Version A - The number of words recalled from List A, second attempt.", "preferredTerm": "ADNI AVLT - List A Recall 2 Total", "submissionValue": "AVL01-List A Recall 2 Total", "synonyms": ["AVL01-List A Recall 2 Total"]}, {"conceptId": "C101913", "definition": "Auditory Verbal Learning Test Version A - List A, Recall 2, Word 1.", "preferredTerm": "ADNI AVLT - List A Recall 2 Word 1", "submissionValue": "AVL01-List A Recall 2 Word 1", "synonyms": ["AVL01-List A Recall 2 Word 1"]}, {"conceptId": "C101922", "definition": "Auditory Verbal Learning Test Version A - List A, Recall 2, Word 10.", "preferredTerm": "ADNI AVLT - List A Recall 2 Word 10", "submissionValue": "AVL01-List A Recall 2 Word 10", "synonyms": ["AVL01-List A Recall 2 Word 10"]}, {"conceptId": "C101923", "definition": "Auditory Verbal Learning Test Version A - List A, Recall 2, Word 11.", "preferredTerm": "ADNI AVLT - List A Recall 2 Word 11", "submissionValue": "AVL01-List A Recall 2 Word 11", "synonyms": ["AVL01-List A Recall 2 Word 11"]}, {"conceptId": "C101924", "definition": "Auditory Verbal Learning Test Version A - List A, Recall 2, Word 12.", "preferredTerm": "ADNI AVLT - List A Recall 2 Word 12", "submissionValue": "AVL01-List A Recall 2 Word 12", "synonyms": ["AVL01-List A Recall 2 Word 12"]}, {"conceptId": "C101925", "definition": "Auditory Verbal Learning Test Version A - List A, Recall 2, Word 13.", "preferredTerm": "ADNI AVLT - List A Recall 2 Word 13", "submissionValue": "AVL01-List A Recall 2 Word 13", "synonyms": ["AVL01-List A Recall 2 Word 13"]}, {"conceptId": "C101926", "definition": "Auditory Verbal Learning Test Version A - List A, Recall 2, Word 14.", "preferredTerm": "ADNI AVLT - List A Recall 2 Word 14", "submissionValue": "AVL01-List A Recall 2 Word 14", "synonyms": ["AVL01-List A Recall 2 Word 14"]}, {"conceptId": "C101927", "definition": "Auditory Verbal Learning Test Version A - List A, Recall 2, Word 15.", "preferredTerm": "ADNI AVLT - List A Recall 2 Word 15", "submissionValue": "AVL01-List A Recall 2 Word 15", "synonyms": ["AVL01-List A Recall 2 Word 15"]}, {"conceptId": "C101914", "definition": "Auditory Verbal Learning Test Version A - List A, Recall 2, Word 2.", "preferredTerm": "ADNI AVLT - List A Recall 2 Word 2", "submissionValue": "AVL01-List A Recall 2 Word 2", "synonyms": ["AVL01-List A Recall 2 Word 2"]}, {"conceptId": "C101915", "definition": "Auditory Verbal Learning Test Version A - List A, Recall 2, Word 3.", "preferredTerm": "ADNI AVLT - List A Recall 2 Word 3", "submissionValue": "AVL01-List A Recall 2 Word 3", "synonyms": ["AVL01-List A Recall 2 Word 3"]}, {"conceptId": "C101916", "definition": "Auditory Verbal Learning Test Version A - List A, Recall 2, Word 4.", "preferredTerm": "ADNI AVLT - List A Recall 2 Word 4", "submissionValue": "AVL01-List A Recall 2 Word 4", "synonyms": ["AVL01-List A Recall 2 Word 4"]}, {"conceptId": "C101917", "definition": "Auditory Verbal Learning Test Version A - List A, Recall 2, Word 5.", "preferredTerm": "ADNI AVLT - List A Recall 2 Word 5", "submissionValue": "AVL01-List A Recall 2 Word 5", "synonyms": ["AVL01-List A Recall 2 Word 5"]}, {"conceptId": "C101918", "definition": "Auditory Verbal Learning Test Version A - List A, Recall 2, Word 6.", "preferredTerm": "ADNI AVLT - List A Recall 2 Word 6", "submissionValue": "AVL01-List A Recall 2 Word 6", "synonyms": ["AVL01-List A Recall 2 Word 6"]}, {"conceptId": "C101919", "definition": "Auditory Verbal Learning Test Version A - List A, Recall 2, Word 7.", "preferredTerm": "ADNI AVLT - List A Recall 2 Word 7", "submissionValue": "AVL01-List A Recall 2 Word 7", "synonyms": ["AVL01-List A Recall 2 Word 7"]}, {"conceptId": "C101920", "definition": "Auditory Verbal Learning Test Version A - List A, Recall 2, Word 8.", "preferredTerm": "ADNI AVLT - List A Recall 2 Word 8", "submissionValue": "AVL01-List A Recall 2 Word 8", "synonyms": ["AVL01-List A Recall 2 Word 8"]}, {"conceptId": "C101921", "definition": "Auditory Verbal Learning Test Version A - List A, Recall 2, Word 9.", "preferredTerm": "ADNI AVLT - List A Recall 2 Word 9", "submissionValue": "AVL01-List A Recall 2 Word 9", "synonyms": ["AVL01-List A Recall 2 Word 9"]}, {"conceptId": "C101945", "definition": "Auditory Verbal Learning Test Version A - The number of words recalled from List A, third attempt.", "preferredTerm": "ADNI AVLT - List A Recall 3 Total", "submissionValue": "AVL01-List A Recall 3 Total", "synonyms": ["AVL01-List A Recall 3 Total"]}, {"conceptId": "C101930", "definition": "Auditory Verbal Learning Test Version A - List A, Recall 3, Word 1.", "preferredTerm": "ADNI AVLT - List A Recall 3 Word 1", "submissionValue": "AVL01-List A Recall 3 Word 1", "synonyms": ["AVL01-List A Recall 3 Word 1"]}, {"conceptId": "C101939", "definition": "Auditory Verbal Learning Test Version A - List A, Recall 3, Word 10.", "preferredTerm": "ADNI AVLT - List A Recall 3 Word 10", "submissionValue": "AVL01-List A Recall 3 Word 10", "synonyms": ["AVL01-List A Recall 3 Word 10"]}, {"conceptId": "C101940", "definition": "Auditory Verbal Learning Test Version A - List A, Recall 3, Word 11.", "preferredTerm": "ADNI AVLT - List A Recall 3 Word 11", "submissionValue": "AVL01-List A Recall 3 Word 11", "synonyms": ["AVL01-List A Recall 3 Word 11"]}, {"conceptId": "C101941", "definition": "Auditory Verbal Learning Test Version A - List A, Recall 3, Word 12.", "preferredTerm": "ADNI AVLT - List A Recall 3 Word 12", "submissionValue": "AVL01-List A Recall 3 Word 12", "synonyms": ["AVL01-List A Recall 3 Word 12"]}, {"conceptId": "C101942", "definition": "Auditory Verbal Learning Test Version A - List A, Recall 3, Word 13.", "preferredTerm": "ADNI AVLT - List A Recall 3 Word 13", "submissionValue": "AVL01-List A Recall 3 Word 13", "synonyms": ["AVL01-List A Recall 3 Word 13"]}, {"conceptId": "C101943", "definition": "Auditory Verbal Learning Test Version A - List A, Recall 3, Word 14.", "preferredTerm": "ADNI AVLT - List A Recall 3 Word 14", "submissionValue": "AVL01-List A Recall 3 Word 14", "synonyms": ["AVL01-List A Recall 3 Word 14"]}, {"conceptId": "C101944", "definition": "Auditory Verbal Learning Test Version A - List A, Recall 3, Word 15.", "preferredTerm": "ADNI AVLT - List A Recall 3 Word 15", "submissionValue": "AVL01-List A Recall 3 Word 15", "synonyms": ["AVL01-List A Recall 3 Word 15"]}, {"conceptId": "C101931", "definition": "Auditory Verbal Learning Test Version A - List A, Recall 3, Word 2.", "preferredTerm": "ADNI AVLT - List A Recall 3 Word 2", "submissionValue": "AVL01-List A Recall 3 Word 2", "synonyms": ["AVL01-List A Recall 3 Word 2"]}, {"conceptId": "C101932", "definition": "Auditory Verbal Learning Test Version A - List A, Recall 3, Word 3.", "preferredTerm": "ADNI AVLT - List A Recall 3 Word 3", "submissionValue": "AVL01-List A Recall 3 Word 3", "synonyms": ["AVL01-List A Recall 3 Word 3"]}, {"conceptId": "C101933", "definition": "Auditory Verbal Learning Test Version A - List A, Recall 3, Word 4.", "preferredTerm": "ADNI AVLT - List A Recall 3 Word 4", "submissionValue": "AVL01-List A Recall 3 Word 4", "synonyms": ["AVL01-List A Recall 3 Word 4"]}, {"conceptId": "C101934", "definition": "Auditory Verbal Learning Test Version A - List A, Recall 3, Word 5.", "preferredTerm": "ADNI AVLT - List A Recall 3 Word 5", "submissionValue": "AVL01-List A Recall 3 Word 5", "synonyms": ["AVL01-List A Recall 3 Word 5"]}, {"conceptId": "C101935", "definition": "Auditory Verbal Learning Test Version A - List A, Recall 3, Word 6.", "preferredTerm": "ADNI AVLT - List A Recall 3 Word 6", "submissionValue": "AVL01-List A Recall 3 Word 6", "synonyms": ["AVL01-List A Recall 3 Word 6"]}, {"conceptId": "C101936", "definition": "Auditory Verbal Learning Test Version A - List A, Recall 3, Word 7.", "preferredTerm": "ADNI AVLT - List A Recall 3 Word 7", "submissionValue": "AVL01-List A Recall 3 Word 7", "synonyms": ["AVL01-List A Recall 3 Word 7"]}, {"conceptId": "C101937", "definition": "Auditory Verbal Learning Test Version A - List A, Recall 3, Word 8.", "preferredTerm": "ADNI AVLT - List A Recall 3 Word 8", "submissionValue": "AVL01-List A Recall 3 Word 8", "synonyms": ["AVL01-List A Recall 3 Word 8"]}, {"conceptId": "C101938", "definition": "Auditory Verbal Learning Test Version A - List A, Recall 3, Word 9.", "preferredTerm": "ADNI AVLT - List A Recall 3 Word 9", "submissionValue": "AVL01-List A Recall 3 Word 9", "synonyms": ["AVL01-List A Recall 3 Word 9"]}, {"conceptId": "C101962", "definition": "Auditory Verbal Learning Test Version A - The number of words recalled from List A, fourth attempt.", "preferredTerm": "ADNI AVLT - List A Recall 4 Total", "submissionValue": "AVL01-List A Recall 4 Total", "synonyms": ["AVL01-List A Recall 4 Total"]}, {"conceptId": "C101947", "definition": "Auditory Verbal Learning Test Version A - List A, Recall 4, Word 1.", "preferredTerm": "ADNI AVLT - List A Recall 4 Word 1", "submissionValue": "AVL01-List A Recall 4 Word 1", "synonyms": ["AVL01-List A Recall 4 Word 1"]}, {"conceptId": "C101956", "definition": "Auditory Verbal Learning Test Version A - List A, Recall 4, Word 10.", "preferredTerm": "ADNI AVLT - List A Recall 4 Word 10", "submissionValue": "AVL01-List A Recall 4 Word 10", "synonyms": ["AVL01-List A Recall 4 Word 10"]}, {"conceptId": "C101957", "definition": "Auditory Verbal Learning Test Version A - List A, Recall 4, Word 11.", "preferredTerm": "ADNI AVLT - List A Recall 4 Word 11", "submissionValue": "AVL01-List A Recall 4 Word 11", "synonyms": ["AVL01-List A Recall 4 Word 11"]}, {"conceptId": "C101958", "definition": "Auditory Verbal Learning Test Version A - List A, Recall 4, Word 12.", "preferredTerm": "ADNI AVLT - List A Recall 4 Word 12", "submissionValue": "AVL01-List A Recall 4 Word 12", "synonyms": ["AVL01-List A Recall 4 Word 12"]}, {"conceptId": "C101959", "definition": "Auditory Verbal Learning Test Version A - List A, Recall 4, Word 13.", "preferredTerm": "ADNI AVLT - List A Recall 4 Word 13", "submissionValue": "AVL01-List A Recall 4 Word 13", "synonyms": ["AVL01-List A Recall 4 Word 13"]}, {"conceptId": "C101960", "definition": "Auditory Verbal Learning Test Version A - List A, Recall 4, Word 14.", "preferredTerm": "ADNI AVLT - List A Recall 4 Word 14", "submissionValue": "AVL01-List A Recall 4 Word 14", "synonyms": ["AVL01-List A Recall 4 Word 14"]}, {"conceptId": "C101961", "definition": "Auditory Verbal Learning Test Version A - List A, Recall 4, Word 15.", "preferredTerm": "ADNI AVLT - List A Recall 4 Word 15", "submissionValue": "AVL01-List A Recall 4 Word 15", "synonyms": ["AVL01-List A Recall 4 Word 15"]}, {"conceptId": "C101948", "definition": "Auditory Verbal Learning Test Version A - List A, Recall 4, Word 2.", "preferredTerm": "ADNI AVLT - List A Recall 4 Word 2", "submissionValue": "AVL01-List A Recall 4 Word 2", "synonyms": ["AVL01-List A Recall 4 Word 2"]}, {"conceptId": "C101949", "definition": "Auditory Verbal Learning Test Version A - List A, Recall 4, Word 3.", "preferredTerm": "ADNI AVLT - List A Recall 4 Word 3", "submissionValue": "AVL01-List A Recall 4 Word 3", "synonyms": ["AVL01-List A Recall 4 Word 3"]}, {"conceptId": "C101950", "definition": "Auditory Verbal Learning Test Version A - List A, Recall 4, Word 4.", "preferredTerm": "ADNI AVLT - List A Recall 4 Word 4", "submissionValue": "AVL01-List A Recall 4 Word 4", "synonyms": ["AVL01-List A Recall 4 Word 4"]}, {"conceptId": "C101951", "definition": "Auditory Verbal Learning Test Version A - List A, Recall 4, Word 5.", "preferredTerm": "ADNI AVLT - List A Recall 4 Word 5", "submissionValue": "AVL01-List A Recall 4 Word 5", "synonyms": ["AVL01-List A Recall 4 Word 5"]}, {"conceptId": "C101952", "definition": "Auditory Verbal Learning Test Version A - List A, Recall 4, Word 6.", "preferredTerm": "ADNI AVLT - List A Recall 4 Word 6", "submissionValue": "AVL01-List A Recall 4 Word 6", "synonyms": ["AVL01-List A Recall 4 Word 6"]}, {"conceptId": "C101953", "definition": "Auditory Verbal Learning Test Version A - List A, Recall 4, Word 7.", "preferredTerm": "ADNI AVLT - List A Recall 4 Word 7", "submissionValue": "AVL01-List A Recall 4 Word 7", "synonyms": ["AVL01-List A Recall 4 Word 7"]}, {"conceptId": "C101954", "definition": "Auditory Verbal Learning Test Version A - List A, Recall 4, Word 8.", "preferredTerm": "ADNI AVLT - List A Recall 4 Word 8", "submissionValue": "AVL01-List A Recall 4 Word 8", "synonyms": ["AVL01-List A Recall 4 Word 8"]}, {"conceptId": "C101955", "definition": "Auditory Verbal Learning Test Version A - List A, Recall 4, Word 9.", "preferredTerm": "ADNI AVLT - List A Recall 4 Word 9", "submissionValue": "AVL01-List A Recall 4 Word 9", "synonyms": ["AVL01-List A Recall 4 Word 9"]}, {"conceptId": "C101979", "definition": "Auditory Verbal Learning Test Version A - The number of words recalled from List A, fifth attempt.", "preferredTerm": "ADNI AVLT - List A Recall 5 Total", "submissionValue": "AVL01-List A Recall 5 Total", "synonyms": ["AVL01-List A Recall 5 Total"]}, {"conceptId": "C101964", "definition": "Auditory Verbal Learning Test Version A - List A, Recall 5, Word 1.", "preferredTerm": "ADNI AVLT - List A Recall 5 Word 1", "submissionValue": "AVL01-List A Recall 5 Word 1", "synonyms": ["AVL01-List A Recall 5 Word 1"]}, {"conceptId": "C101973", "definition": "Auditory Verbal Learning Test Version A - List A, Recall 5, Word 10.", "preferredTerm": "ADNI AVLT - List A Recall 5 Word 10", "submissionValue": "AVL01-List A Recall 5 Word 10", "synonyms": ["AVL01-List A Recall 5 Word 10"]}, {"conceptId": "C101974", "definition": "Auditory Verbal Learning Test Version A - List A, Recall 5, Word 11.", "preferredTerm": "ADNI AVLT - List A Recall 5 Word 11", "submissionValue": "AVL01-List A Recall 5 Word 11", "synonyms": ["AVL01-List A Recall 5 Word 11"]}, {"conceptId": "C101975", "definition": "Auditory Verbal Learning Test Version A - List A, Recall 5, Word 12.", "preferredTerm": "ADNI AVLT - List A Recall 5 Word 12", "submissionValue": "AVL01-List A Recall 5 Word 12", "synonyms": ["AVL01-List A Recall 5 Word 12"]}, {"conceptId": "C101976", "definition": "Auditory Verbal Learning Test Version A - List A, Recall 5, Word 13.", "preferredTerm": "ADNI AVLT - List A Recall 5 Word 13", "submissionValue": "AVL01-List A Recall 5 Word 13", "synonyms": ["AVL01-List A Recall 5 Word 13"]}, {"conceptId": "C101977", "definition": "Auditory Verbal Learning Test Version A - List A, Recall 5, Word 14.", "preferredTerm": "ADNI AVLT - List A Recall 5 Word 14", "submissionValue": "AVL01-List A Recall 5 Word 14", "synonyms": ["AVL01-List A Recall 5 Word 14"]}, {"conceptId": "C101978", "definition": "Auditory Verbal Learning Test Version A - List A, Recall 5, Word 15.", "preferredTerm": "ADNI AVLT - List A Recall 5 Word 15", "submissionValue": "AVL01-List A Recall 5 Word 15", "synonyms": ["AVL01-List A Recall 5 Word 15"]}, {"conceptId": "C101965", "definition": "Auditory Verbal Learning Test Version A - List A, Recall 5, Word 2.", "preferredTerm": "ADNI AVLT - List A Recall 5 Word 2", "submissionValue": "AVL01-List A Recall 5 Word 2", "synonyms": ["AVL01-List A Recall 5 Word 2"]}, {"conceptId": "C101966", "definition": "Auditory Verbal Learning Test Version A - List A, Recall 5, Word 3.", "preferredTerm": "ADNI AVLT - List A Recall 5 Word 3", "submissionValue": "AVL01-List A Recall 5 Word 3", "synonyms": ["AVL01-List A Recall 5 Word 3"]}, {"conceptId": "C101967", "definition": "Auditory Verbal Learning Test Version A - List A, Recall 5, Word 4.", "preferredTerm": "ADNI AVLT - List A Recall 5 Word 4", "submissionValue": "AVL01-List A Recall 5 Word 4", "synonyms": ["AVL01-List A Recall 5 Word 4"]}, {"conceptId": "C101968", "definition": "Auditory Verbal Learning Test Version A - List A, Recall 5, Word 5.", "preferredTerm": "ADNI AVLT - List A Recall 5 Word 5", "submissionValue": "AVL01-List A Recall 5 Word 5", "synonyms": ["AVL01-List A Recall 5 Word 5"]}, {"conceptId": "C101969", "definition": "Auditory Verbal Learning Test Version A - List A, Recall 5, Word 6.", "preferredTerm": "ADNI AVLT - List A Recall 5 Word 6", "submissionValue": "AVL01-List A Recall 5 Word 6", "synonyms": ["AVL01-List A Recall 5 Word 6"]}, {"conceptId": "C101970", "definition": "Auditory Verbal Learning Test Version A - List A, Recall 5, Word 7.", "preferredTerm": "ADNI AVLT - List A Recall 5 Word 7", "submissionValue": "AVL01-List A Recall 5 Word 7", "synonyms": ["AVL01-List A Recall 5 Word 7"]}, {"conceptId": "C101971", "definition": "Auditory Verbal Learning Test Version A - List A, Recall 5, Word 8.", "preferredTerm": "ADNI AVLT - List A Recall 5 Word 8", "submissionValue": "AVL01-List A Recall 5 Word 8", "synonyms": ["AVL01-List A Recall 5 Word 8"]}, {"conceptId": "C101972", "definition": "Auditory Verbal Learning Test Version A - List A, Recall 5, Word 9.", "preferredTerm": "ADNI AVLT - List A Recall 5 Word 9", "submissionValue": "AVL01-List A Recall 5 Word 9", "synonyms": ["AVL01-List A Recall 5 Word 9"]}, {"conceptId": "C101996", "definition": "Auditory Verbal Learning Test Version A - The number of words recalled from List A, sixth attempt (after List B recall).", "preferredTerm": "ADNI AVLT - List A Recall 6 (After B) Total", "submissionValue": "AVL01-List A Recall 6 (After B) Total", "synonyms": ["AVL01-List A Recall 6 (After B) Total"]}, {"conceptId": "C101981", "definition": "Auditory Verbal Learning Test Version A - List A, Recall 6 (after B Recall), Word 1.", "preferredTerm": "ADNI AVLT - List A Recall 6 (After B) Word 1", "submissionValue": "AVL01-List A Recall 6 (After B) Word 1", "synonyms": ["AVL01-List A Recall 6 (After B) Word 1"]}, {"conceptId": "C101990", "definition": "Auditory Verbal Learning Test Version A - List A, Recall 6 (after B Recall), Word 10.", "preferredTerm": "ADNI AVLT - List A Recall 6 (After B) Word 10", "submissionValue": "AVL01-List A Recall 6 (After B) Word 10", "synonyms": ["AVL01-List A Recall 6 (After B) Word 10"]}, {"conceptId": "C101991", "definition": "Auditory Verbal Learning Test Version A - List A, Recall 6 (after B Recall), Word 11.", "preferredTerm": "ADNI AVLT - List A Recall 6 (After B) Word 11", "submissionValue": "AVL01-List A Recall 6 (After B) Word 11", "synonyms": ["AVL01-List A Recall 6 (After B) Word 11"]}, {"conceptId": "C101992", "definition": "Auditory Verbal Learning Test Version A - List A, Recall 6 (after B Recall), Word 12.", "preferredTerm": "ADNI AVLT - List A Recall 6 (After B) Word 12", "submissionValue": "AVL01-List A Recall 6 (After B) Word 12", "synonyms": ["AVL01-List A Recall 6 (After B) Word 12"]}, {"conceptId": "C101993", "definition": "Auditory Verbal Learning Test Version A - List A, Recall 6 (after B Recall), Word 13.", "preferredTerm": "ADNI AVLT - List A Recall 6 (After B) Word 13", "submissionValue": "AVL01-List A Recall 6 (After B) Word 13", "synonyms": ["AVL01-List A Recall 6 (After B) Word 13"]}, {"conceptId": "C101994", "definition": "Auditory Verbal Learning Test Version A - List A, Recall 6 (after B Recall), Word 14.", "preferredTerm": "ADNI AVLT - List A Recall 6 (After B) Word 14", "submissionValue": "AVL01-List A Recall 6 (After B) Word 14", "synonyms": ["AVL01-List A Recall 6 (After B) Word 14"]}, {"conceptId": "C101995", "definition": "Auditory Verbal Learning Test Version A - List A, Recall 6 (after B Recall), Word 15.", "preferredTerm": "ADNI AVLT - List A Recall 6 (After B) Word 15", "submissionValue": "AVL01-List A Recall 6 (After B) Word 15", "synonyms": ["AVL01-List A Recall 6 (After B) Word 15"]}, {"conceptId": "C101982", "definition": "Auditory Verbal Learning Test Version A - List A, Recall 6 (after B Recall), Word 2.", "preferredTerm": "ADNI AVLT - List A Recall 6 (After B) Word 2", "submissionValue": "AVL01-List A Recall 6 (After B) Word 2", "synonyms": ["AVL01-List A Recall 6 (After B) Word 2"]}, {"conceptId": "C101983", "definition": "Auditory Verbal Learning Test Version A - List A, Recall 6 (after B Recall), Word 3.", "preferredTerm": "ADNI AVLT - List A Recall 6 (After B) Word 3", "submissionValue": "AVL01-List A Recall 6 (After B) Word 3", "synonyms": ["AVL01-List A Recall 6 (After B) Word 3"]}, {"conceptId": "C101984", "definition": "Auditory Verbal Learning Test Version A - List A, Recall 6 (after B Recall), Word 4.", "preferredTerm": "ADNI AVLT - List A Recall 6 (After B) Word 4", "submissionValue": "AVL01-List A Recall 6 (After B) Word 4", "synonyms": ["AVL01-List A Recall 6 (After B) Word 4"]}, {"conceptId": "C101985", "definition": "Auditory Verbal Learning Test Version A - List A, Recall 6 (after B Recall), Word 5.", "preferredTerm": "ADNI AVLT - List A Recall 6 (After B) Word 5", "submissionValue": "AVL01-List A Recall 6 (After B) Word 5", "synonyms": ["AVL01-List A Recall 6 (After B) Word 5"]}, {"conceptId": "C101986", "definition": "Auditory Verbal Learning Test Version A - List A, Recall 6 (after B Recall), Word 6.", "preferredTerm": "ADNI AVLT - List A Recall 6 (After B) Word 6", "submissionValue": "AVL01-List A Recall 6 (After B) Word 6", "synonyms": ["AVL01-List A Recall 6 (After B) Word 6"]}, {"conceptId": "C101987", "definition": "Auditory Verbal Learning Test Version A - List A, Recall 6 (after B Recall), Word 7.", "preferredTerm": "ADNI AVLT - List A Recall 6 (After B) Word 7", "submissionValue": "AVL01-List A Recall 6 (After B) Word 7", "synonyms": ["AVL01-List A Recall 6 (After B) Word 7"]}, {"conceptId": "C101988", "definition": "Auditory Verbal Learning Test Version A - List A, Recall 6 (after B Recall), Word 8.", "preferredTerm": "ADNI AVLT - List A Recall 6 (After B) Word 8", "submissionValue": "AVL01-List A Recall 6 (After B) Word 8", "synonyms": ["AVL01-List A Recall 6 (After B) Word 8"]}, {"conceptId": "C101989", "definition": "Auditory Verbal Learning Test Version A - List A, Recall 6 (after B Recall), Word 9.", "preferredTerm": "ADNI AVLT - List A Recall 6 (After B) Word 9", "submissionValue": "AVL01-List A Recall 6 (After B) Word 9", "synonyms": ["AVL01-List A Recall 6 (After B) Word 9"]}, {"conceptId": "C102033", "definition": "Auditory Verbal Learning Test Version A - The number of intrusions on recognition test.", "preferredTerm": "ADNI AVLT - List A Recognition Intrusions", "submissionValue": "AVL01-List A Recognition Intrusions", "synonyms": ["AVL01-List A Recognition Intrusions"]}, {"conceptId": "C102032", "definition": "Auditory Verbal Learning Test Version A - The number of words correct on recognition test.", "preferredTerm": "ADNI AVLT - List A Recognition Total", "submissionValue": "AVL01-List A Recognition Total", "synonyms": ["AVL01-List A Recognition Total"]}, {"conceptId": "C102014", "definition": "Auditory Verbal Learning Test Version A - The number of intrusions while recalling List B.", "preferredTerm": "ADNI AVLT - List B Intrusions", "submissionValue": "AVL01-List B Intrusions", "synonyms": ["AVL01-List B Intrusions"]}, {"conceptId": "C102013", "definition": "Auditory Verbal Learning Test Version A - The number of words recalled from List B.", "preferredTerm": "ADNI AVLT - List B Recall Total", "submissionValue": "AVL01-List B Recall Total", "synonyms": ["AVL01-List B Recall Total"]}, {"conceptId": "C101998", "definition": "Auditory Verbal Learning Test Version A - List B, Word 1.", "preferredTerm": "ADNI AVLT - List B Recall Word 1", "submissionValue": "AVL01-List B Recall Word 1", "synonyms": ["AVL01-List B Recall Word 1"]}, {"conceptId": "C102007", "definition": "Auditory Verbal Learning Test Version A - List B, Word 10.", "preferredTerm": "ADNI AVLT - List B Recall Word 10", "submissionValue": "AVL01-List B Recall Word 10", "synonyms": ["AVL01-List B Recall Word 10"]}, {"conceptId": "C102008", "definition": "Auditory Verbal Learning Test Version A - List B, Word 11.", "preferredTerm": "ADNI AVLT - List B Recall Word 11", "submissionValue": "AVL01-List B Recall Word 11", "synonyms": ["AVL01-List B Recall Word 11"]}, {"conceptId": "C102009", "definition": "Auditory Verbal Learning Test Version A - List B, Word 12.", "preferredTerm": "ADNI AVLT - List B Recall Word 12", "submissionValue": "AVL01-List B Recall Word 12", "synonyms": ["AVL01-List B Recall Word 12"]}, {"conceptId": "C102010", "definition": "Auditory Verbal Learning Test Version A - List B, Word 13.", "preferredTerm": "ADNI AVLT - List B Recall Word 13", "submissionValue": "AVL01-List B Recall Word 13", "synonyms": ["AVL01-List B Recall Word 13"]}, {"conceptId": "C102011", "definition": "Auditory Verbal Learning Test Version A - List B, Word 14.", "preferredTerm": "ADNI AVLT - List B Recall Word 14", "submissionValue": "AVL01-List B Recall Word 14", "synonyms": ["AVL01-List B Recall Word 14"]}, {"conceptId": "C102012", "definition": "Auditory Verbal Learning Test Version A - List B, Word 15.", "preferredTerm": "ADNI AVLT - List B Recall Word 15", "submissionValue": "AVL01-List B Recall Word 15", "synonyms": ["AVL01-List B Recall Word 15"]}, {"conceptId": "C101999", "definition": "Auditory Verbal Learning Test Version A - List B, Word 2.", "preferredTerm": "ADNI AVLT - List B Recall Word 2", "submissionValue": "AVL01-List B Recall Word 2", "synonyms": ["AVL01-List B Recall Word 2"]}, {"conceptId": "C102000", "definition": "Auditory Verbal Learning Test Version A - List B, Word 3.", "preferredTerm": "ADNI AVLT - List B Recall Word 3", "submissionValue": "AVL01-List B Recall Word 3", "synonyms": ["AVL01-List B Recall Word 3"]}, {"conceptId": "C102001", "definition": "Auditory Verbal Learning Test Version A - List B, Word 4.", "preferredTerm": "ADNI AVLT - List B Recall Word 4", "submissionValue": "AVL01-List B Recall Word 4", "synonyms": ["AVL01-List B Recall Word 4"]}, {"conceptId": "C102002", "definition": "Auditory Verbal Learning Test Version A - List B, Word 5.", "preferredTerm": "ADNI AVLT - List B Recall Word 5", "submissionValue": "AVL01-List B Recall Word 5", "synonyms": ["AVL01-List B Recall Word 5"]}, {"conceptId": "C102003", "definition": "Auditory Verbal Learning Test Version A - List B, Word 6.", "preferredTerm": "ADNI AVLT - List B Recall Word 6", "submissionValue": "AVL01-List B Recall Word 6", "synonyms": ["AVL01-List B Recall Word 6"]}, {"conceptId": "C102004", "definition": "Auditory Verbal Learning Test Version A - List B, Word 7.", "preferredTerm": "ADNI AVLT - List B Recall Word 7", "submissionValue": "AVL01-List B Recall Word 7", "synonyms": ["AVL01-List B Recall Word 7"]}, {"conceptId": "C102005", "definition": "Auditory Verbal Learning Test Version A - List B, Word 8.", "preferredTerm": "ADNI AVLT - List B Recall Word 8", "submissionValue": "AVL01-List B Recall Word 8", "synonyms": ["AVL01-List B Recall Word 8"]}, {"conceptId": "C102006", "definition": "Auditory Verbal Learning Test Version A - List B, Word 9.", "preferredTerm": "ADNI AVLT - List B Recall Word 9", "submissionValue": "AVL01-List B Recall Word 9", "synonyms": ["AVL01-List B Recall Word 9"]}]}