{"_links": {"parentPackage": {"href": "/mdr/ct/packages/sdtmct-2019-09-27", "title": "SDTM Controlled Terminology Package 39 Effective 2019-09-27", "type": "Terminology"}, "priorVersion": {"href": "/mdr/ct/packages/sdtmct-2019-06-28/codelists/C101845", "title": "CDISC SDTM Mechanical Circulatory Support Placement Timing Terminology", "type": "Code List"}, "rootItem": {"href": "/mdr/root/ct/sdtmct/codelists/C101845", "title": "Version-agnostic anchor resource for codelist C101845", "type": "Root Value Domain"}, "self": {"href": "/mdr/ct/packages/sdtmct-2019-09-27/codelists/C101845", "title": "CDISC SDTM Mechanical Circulatory Support Placement Timing Terminology", "type": "Code List"}}, "conceptId": "C101845", "definition": "A terminology codelist to describe the timing of mechanical circulatory support placement.", "extensible": "false", "name": "Mechanical Circulatory Support Placement Timing", "preferredTerm": "CDISC SDTM Mechanical Circulatory Support Placement Timing Terminology", "submissionValue": "MCRCSPTM", "synonyms": ["Mechanical Circulatory Support Placement Timing"], "terms": [{"conceptId": "C99981", "definition": "Mechanical Circulatory Support was in place at the start of the procedure.", "preferredTerm": "Mechanical Circulatory Support in Place at Start of Procedure", "submissionValue": "IN PLACE AT START OF PROCEDURE", "synonyms": ["In Place at Start of Procedure"]}, {"conceptId": "C99962", "definition": "Mechanical Circulatory Support was inserted during a non-Percutaneous Coronary Intervention (PCI) procedure.", "preferredTerm": "Inserted During a Non-Percutaneous Coronary Intervention", "submissionValue": "INSERTED DURING A NON-PERCUTANEOUS CORONARY INTERVENTION PROCEDURE", "synonyms": ["Inserted during a Non PCI Procedure"]}, {"conceptId": "C99964", "definition": "Mechanical Circulatory Support was inserted during the procedure after Percutaneous Coronary Intervention (PCI) started.", "preferredTerm": "Inserted During Procedure and After Percutaneous Coronary Intervention Began", "submissionValue": "INSERTED DURING PROCEDURE AND AFTER PERCUTANEOUS CORONARY INTERVENTION STARTED", "synonyms": ["Inserted during Procedure and after PCI Started"]}, {"conceptId": "C99963", "definition": "Mechanical Circulatory Support was inserted during the procedure prior to percutaneous coronary intervention (PCI).", "preferredTerm": "Inserted During a Procedure but Prior to Percutaneous Coronary Intervention", "submissionValue": "INSERTED DURING PROCEDURE BUT PRIOR TO PERCUTANEOUS CORONARY INTERVENTION", "synonyms": ["Inserted during Procedure but Prior to PCI"]}]}