{"_links": {"parentPackage": {"href": "/mdr/ct/packages/sdtmct-2019-09-27", "title": "SDTM Controlled Terminology Package 39 Effective 2019-09-27", "type": "Terminology"}, "priorVersion": {"href": "/mdr/ct/packages/sdtmct-2019-06-28/codelists/C102579", "title": "CDISC SDTM Supporting Evidence for Re-Treatment Terminology", "type": "Code List"}, "rootItem": {"href": "/mdr/root/ct/sdtmct/codelists/C102579", "title": "Version-agnostic anchor resource for codelist C102579", "type": "Root Value Domain"}, "self": {"href": "/mdr/ct/packages/sdtmct-2019-09-27/codelists/C102579", "title": "CDISC SDTM Supporting Evidence for Re-Treatment Terminology", "type": "Code List"}}, "conceptId": "C102579", "definition": "Terminology relevant to the clinical evidence to support reason for re-treatment of disease.", "extensible": "true", "name": "Supporting Evidence for Re-Treatment", "preferredTerm": "CDISC SDTM Supporting Evidence for Re-Treatment Terminology", "submissionValue": "EVDRETRT", "synonyms": ["Supporting Evidence for Re-Treatment"], "terms": [{"conceptId": "C102602", "definition": "Objective evidence of bacterial infection perceptible to the examiner by laboratory procedure.", "preferredTerm": "Bacteriological Finding", "submissionValue": "BACTERIOLOGICAL FINDING"}, {"conceptId": "C100104", "definition": "Objective evidence of disease perceptible to the examiner (sign) and subjective evidence of disease perceived by the subject (symptom).", "preferredTerm": "Sign or Symptom", "submissionValue": "CLINICAL FINDING", "synonyms": ["Clinical Signs"]}, {"conceptId": "C35869", "definition": "Objective evidence of disease perceptible to the examiner by radiological procedure.", "preferredTerm": "Radiologic Finding", "submissionValue": "RADIOLOGIC FINDING"}]}