{"_links": {"parentPackage": {"href": "/mdr/ct/packages/sdtmct-2019-09-27", "title": "SDTM Controlled Terminology Package 39 Effective 2019-09-27", "type": "Terminology"}, "priorVersion": {"href": "/mdr/ct/packages/sdtmct-2019-06-28/codelists/C111110", "title": "CDISC SDTM Device Events Action Taken with Device Terminology", "type": "Code List"}, "rootItem": {"href": "/mdr/root/ct/sdtmct/codelists/C111110", "title": "Version-agnostic anchor resource for codelist C111110", "type": "Root Value Domain"}, "self": {"href": "/mdr/ct/packages/sdtmct-2019-09-27/codelists/C111110", "title": "CDISC SDTM Device Events Action Taken with Device Terminology", "type": "Code List"}}, "conceptId": "C111110", "definition": "A terminology codelist based on the action taken with respect to the device.", "extensible": "true", "name": "Device Events Action Taken with Device", "preferredTerm": "CDISC SDTM Device Events Action Taken with Device Terminology", "submissionValue": "DEACNDEV", "synonyms": ["Device Events Action Taken with Device"], "terms": [{"conceptId": "C69187", "definition": "The act of checking or adjusting (by comparison with a standard) the accuracy of a measuring instrument. (NCI)", "preferredTerm": "Calibration", "submissionValue": "CALIBRATION"}, {"conceptId": "C61575", "definition": "The act of taking out, extracting, or withdrawing an entity from a location.", "preferredTerm": "Extraction", "submissionValue": "REMOVAL"}, {"conceptId": "C111306", "definition": "The act of rewriting program code or application software. (NCI)", "preferredTerm": "Reprogram", "submissionValue": "REPROGRAMMING"}]}