{"_links": {"parentPackage": {"href": "/mdr/ct/packages/sdtmct-2019-09-27", "title": "SDTM Controlled Terminology Package 39 Effective 2019-09-27", "type": "Terminology"}, "priorVersion": {"href": "/mdr/ct/packages/sdtmct-2019-06-28/codelists/C111343", "title": "CDISC Questionnaire FAQ Test Name Terminology", "type": "Code List"}, "rootItem": {"href": "/mdr/root/ct/sdtmct/codelists/C111343", "title": "Version-agnostic anchor resource for codelist C111343", "type": "Root Value Domain"}, "self": {"href": "/mdr/ct/packages/sdtmct-2019-09-27/codelists/C111343", "title": "CDISC Questionnaire FAQ Test Name Terminology", "type": "Code List"}}, "conceptId": "C111343", "definition": "Functional Activities Questionnaire test name.", "extensible": "false", "name": "Functional Activities Questionnaire Test Name", "preferredTerm": "CDISC Questionnaire FAQ Test Name Terminology", "submissionValue": "FAQ01TN", "synonyms": ["Functional Activities Questionnaire Test Name"], "terms": [{"conceptId": "C111500", "definition": "Functional Activities Questionnaire - Assembling tax records, business affairs, or papers.", "preferredTerm": "FAQ - Assemble", "submissionValue": "FAQ01-Assembling", "synonyms": ["FAQ01-Assembling"]}, {"conceptId": "C111503", "definition": "Functional Activities Questionnaire - Heating water, making a cup of coffee, turning off stove after use.", "preferredTerm": "FAQ - Heat water, Make Coffee, Turn Off Stove", "submissionValue": "FAQ01-Heat Water/Make Coffee/Stove Off", "synonyms": ["FAQ01-Heat Water/Make Coffee/Stove Off"]}, {"conceptId": "C111505", "definition": "Functional Activities Questionnaire - Keeping track of current events.", "preferredTerm": "FAQ - Keep Track of Current Events", "submissionValue": "FAQ01-Keeping Track of Current Events", "synonyms": ["FAQ01-Keeping Track of Current Events"]}, {"conceptId": "C111506", "definition": "Functional Activities Questionnaire - Paying attention to, understanding, discussing TV, book, magazine.", "preferredTerm": "FAQ - Pay Attention, Understand, Discuss", "submissionValue": "FAQ01-Paying Attention", "synonyms": ["FAQ01-Paying Attention"]}, {"conceptId": "C111502", "definition": "Functional Activities Questionnaire - Playing a game of skill, working on a hobby.", "preferredTerm": "FAQ - Play Game of Skill, Work on Hobby", "submissionValue": "FAQ01-Playing a Game of Skill", "synonyms": ["FAQ01-Playing a Game of Skill"]}, {"conceptId": "C111504", "definition": "Functional Activities Questionnaire - Preparing a balanced meal.", "preferredTerm": "FAQ - Prepare a Meal", "submissionValue": "FAQ01-Preparing a Balanced Meal", "synonyms": ["FAQ01-Preparing a Balanced Meal"]}, {"conceptId": "C111507", "definition": "Functional Activities Questionnaire - Remembering appointments, family occasions, holidays, medications.", "preferredTerm": "FAQ - Remember", "submissionValue": "FAQ01-Remembering", "synonyms": ["FAQ01-Remembering"]}, {"conceptId": "C111501", "definition": "Functional Activities Questionnaire - Shopping alone for clothes, household necessities, or groceries.", "preferredTerm": "FAQ - Shop Alone", "submissionValue": "FAQ01-Shopping Alone", "synonyms": ["FAQ01-Shopping Alone"]}, {"conceptId": "C111509", "definition": "Functional Activities Questionnaire - Total Score.", "preferredTerm": "FAQ - Total Score", "submissionValue": "FAQ01-Total Score", "synonyms": ["FAQ01-Total Score"]}, {"conceptId": "C111508", "definition": "Functional Activities Questionnaire - Traveling out of neighborhood, driving, arranging to take buses.", "preferredTerm": "FAQ - Travel", "submissionValue": "FAQ01-Traveling", "synonyms": ["FAQ01-Traveling"]}, {"conceptId": "C111499", "definition": "Functional Activities Questionnaire - Writing checks, paying bills, balancing checkbook.", "preferredTerm": "FAQ - Write checks, Pay bills, Balance checkbook", "submissionValue": "FAQ01-Write Checks/Pay Bills/Checkbook", "synonyms": ["FAQ01-Write Checks/Pay Bills/Checkbook"]}]}