{"_links": {"parentPackage": {"href": "/mdr/ct/packages/sdtmct-2019-09-27", "title": "SDTM Controlled Terminology Package 39 Effective 2019-09-27", "type": "Terminology"}, "priorVersion": {"href": "/mdr/ct/packages/sdtmct-2019-06-28/codelists/C111111", "title": "CDISC SDTM Device Properties Test Code Terminology", "type": "Code List"}, "rootItem": {"href": "/mdr/root/ct/sdtmct/codelists/C111111", "title": "Version-agnostic anchor resource for codelist C111111", "type": "Root Value Domain"}, "self": {"href": "/mdr/ct/packages/sdtmct-2019-09-27/codelists/C111111", "title": "CDISC SDTM Device Properties Test Code Terminology", "type": "Code List"}}, "conceptId": "C111111", "definition": "A terminology codelist based on the test code used to obtain the device property.", "extensible": "true", "name": "Device Properties Test Code", "preferredTerm": "CDISC SDTM Device Properties Test Code Terminology", "submissionValue": "DOTESTCD", "synonyms": ["Device Properties Test Code"], "terms": [{"conceptId": "C53414", "definition": "The materials from which something is made.", "preferredTerm": "Composition", "submissionValue": "COMPOS", "synonyms": ["Composition"]}, {"conceptId": "C142234", "definition": "The number of digital samples taken or recorded per unit of time.", "preferredTerm": "Digital Sampling Rate", "submissionValue": "DIGSMPRT", "synonyms": ["Digital Sampling Rate"]}, {"conceptId": "C154712", "definition": "The literal identifier of the dinucleotide markers present in an assay kit.", "preferredTerm": "Dinucleotide Marker Name", "submissionValue": "DINTMKNM", "synonyms": ["Dinucleotide Marker Names"]}, {"conceptId": "C142235", "definition": "A description of the sensor used to detect electrical current.", "preferredTerm": "Type of Electrical Current Sensor", "submissionValue": "ECSNRTYP", "synonyms": ["Electrical Current Sensor Type"]}, {"conceptId": "C112278", "definition": "The class of medical device as determined by the US Food and Drug Administration, based upon the level of control necessary to ensure safety and effectiveness (21 CFR 860).", "preferredTerm": "FDA Device Classification", "submissionValue": "FDADEVCL", "synonyms": ["FDA Device Classification"]}, {"conceptId": "C41184", "definition": "A general description of the disease or condition the product will diagnose, treat, prevent, cure, or mitigate.", "preferredTerm": "Indication", "submissionValue": "INDC", "synonyms": ["Indication for Use"]}, {"conceptId": "C154711", "definition": "The extent of a 2-dimensional surface enclosed within the boundary of an internal orifice.", "preferredTerm": "Internal Orifice Area", "submissionValue": "IORFAREA", "synonyms": ["Internal Orifice Area"]}, {"conceptId": "C120606", "definition": "A classification of light emission.", "preferredTerm": "Luminescence Type", "submissionValue": "LUMNCTYP", "synonyms": ["Luminescence Type"]}, {"conceptId": "C156494", "definition": "A measurement of the force of magnetism that acts in the region around a magnetic material or a moving electrical charge.", "preferredTerm": "Magnetic Field Strength", "submissionValue": "MAGFSTR", "synonyms": ["Magnetic Field Strength"]}, {"conceptId": "C150830", "definition": "The literal identifier of the mononucleotide markers present in an assay kit.", "preferredTerm": "Mononucleotide Marker Name", "submissionValue": "MONTMKNM", "synonyms": ["Mononucleotide Marker Names"]}, {"conceptId": "C116119", "definition": "The classification of the coil that is used in an magnetic resonance imaging procedure. Usually refers to the anatomical location for where the coil is placed such as head, body or breast.", "preferredTerm": "MRI Coil Type", "submissionValue": "MRICTYPE", "synonyms": ["MRI Coil Type"]}, {"conceptId": "C116118", "definition": "A descriptor referring to the number of unique molecular probes contained in each assay component from which results are obtained, such as each well in a 96-well plate.", "preferredTerm": "Multiplex Probe Parameter", "submissionValue": "MULTPLEX", "synonyms": ["Multiplex Probe Parameter"]}, {"conceptId": "C150831", "definition": "The literal identifier of the pentanucleotide markers present in an assay kit.", "preferredTerm": "Pentanucleotide Marker Name", "submissionValue": "PENTMKNM", "synonyms": ["Pentanucleotide Marker Names"]}, {"conceptId": "C112332", "definition": "A quantitative or qualitative measurement of the physical dimensions of the pores in a material.", "preferredTerm": "Material Pore Size", "submissionValue": "PORESIZE", "synonyms": ["Pore Size"]}, {"conceptId": "C112406", "definition": "The lot number of the reagent.", "preferredTerm": "Reagent Lot Number", "submissionValue": "REAGLOT", "synonyms": ["Reagent Lot"]}, {"conceptId": "C116120", "definition": "The classification of the crystalline material, which emits light in response to radiation exposure, used in the imaging procedure.", "preferredTerm": "Scintillation Crystal Type", "submissionValue": "SCRYSTYP", "synonyms": ["Scintillation Crystal Type"]}, {"conceptId": "C150832", "definition": "The literal identifier of the software program.", "preferredTerm": "Software Name", "submissionValue": "SFTWRNAM", "synonyms": ["Software Name"]}, {"conceptId": "C111093", "definition": "A form or variant of software; one of a sequence of copies of a software program, each incorporating new modifications. (NCI)", "preferredTerm": "Software Version", "submissionValue": "SFTWRVER", "synonyms": ["Software Version"]}, {"conceptId": "C70855", "definition": "The period during which a medical product retains its properties and stated performance within specified limits if stored under defined conditions. The stability period is determined from the date the product was manufactured.", "preferredTerm": "Medical Product Shelf Life", "submissionValue": "SHLFLIFE", "synonyms": ["Shelf Life"]}, {"conceptId": "C25681", "definition": "The physical magnitude of something. (NCI)", "preferredTerm": "Size", "submissionValue": "SIZE", "synonyms": ["Size"]}, {"conceptId": "C112421", "definition": "A quantitative or qualitative measurement of the physical dimensions of the open spaces in a loosely woven sheet of inorganic or biological materials, which is used to physically support organs or tissue during a surgical procedure.", "preferredTerm": "Surgical Mesh Open Area", "submissionValue": "SRGMSHOA", "synonyms": ["Surgical Mesh Open Area"]}, {"conceptId": "C25206", "definition": "The property of a body or region of space that determines whether or not there will be a net flow of heat into it or out of it from a neighboring body or region and in which direction (if any) the heat will flow, perceptible by living organism as a somatic sensation of cold or heat. It is a measure of the average translational kinetic energy associated with the disordered microscopic motion of atoms and molecules. Temperature is measured in one of the three standard temperature scales: Celsius, Kelvin, and Fahrenheit. (NCI)", "preferredTerm": "Temperature", "submissionValue": "TEMP", "synonyms": ["Temperature"]}, {"conceptId": "C41145", "definition": "The dimension between two surfaces of an object, usually the smallest dimension as opposed to the width or the length.", "preferredTerm": "Thickness", "submissionValue": "THICKNSS", "synonyms": ["Thickness"]}, {"conceptId": "C161328", "definition": "The number of signal amplification cycles at which the signal reaches an intensity above the background signal. (NCI)", "preferredTerm": "Threshold Cycle", "submissionValue": "THRSHCYC", "synonyms": ["Ct", "Cycle Threshold", "Elbow Value", "Threshold Cycle"]}, {"conceptId": "C158156", "definition": "The concentration or quantity of the treatment.", "preferredTerm": "Treatment Amount", "submissionValue": "TRTAMT", "synonyms": ["Treatment Amount"]}]}