{"_links": {"parentPackage": {"href": "/mdr/ct/packages/sdtmct-2019-09-27", "title": "SDTM Controlled Terminology Package 39 Effective 2019-09-27", "type": "Terminology"}, "priorVersion": {"href": "/mdr/ct/packages/sdtmct-2019-06-28/codelists/C111344", "title": "CDISC Questionnaire FAQ Test Code Terminology", "type": "Code List"}, "rootItem": {"href": "/mdr/root/ct/sdtmct/codelists/C111344", "title": "Version-agnostic anchor resource for codelist C111344", "type": "Root Value Domain"}, "self": {"href": "/mdr/ct/packages/sdtmct-2019-09-27/codelists/C111344", "title": "CDISC Questionnaire FAQ Test Code Terminology", "type": "Code List"}}, "conceptId": "C111344", "definition": "Functional Activities Questionnaire test code.", "extensible": "false", "name": "Functional Activities Questionnaire Test Code", "preferredTerm": "CDISC Questionnaire FAQ Test Code Terminology", "submissionValue": "FAQ01TC", "synonyms": ["Functional Activities Questionnaire Test Code"], "terms": [{"conceptId": "C111499", "definition": "Functional Activities Questionnaire - Writing checks, paying bills, balancing checkbook.", "preferredTerm": "FAQ - Write checks, Pay bills, Balance checkbook", "submissionValue": "FAQ0101", "synonyms": ["FAQ01-Write Checks/Pay Bills/Checkbook"]}, {"conceptId": "C111500", "definition": "Functional Activities Questionnaire - Assembling tax records, business affairs, or papers.", "preferredTerm": "FAQ - Assemble", "submissionValue": "FAQ0102", "synonyms": ["FAQ01-Assembling"]}, {"conceptId": "C111501", "definition": "Functional Activities Questionnaire - Shopping alone for clothes, household necessities, or groceries.", "preferredTerm": "FAQ - Shop Alone", "submissionValue": "FAQ0103", "synonyms": ["FAQ01-Shopping Alone"]}, {"conceptId": "C111502", "definition": "Functional Activities Questionnaire - Playing a game of skill, working on a hobby.", "preferredTerm": "FAQ - Play Game of Skill, Work on Hobby", "submissionValue": "FAQ0104", "synonyms": ["FAQ01-Playing a Game of Skill"]}, {"conceptId": "C111503", "definition": "Functional Activities Questionnaire - Heating water, making a cup of coffee, turning off stove after use.", "preferredTerm": "FAQ - Heat water, Make Coffee, Turn Off Stove", "submissionValue": "FAQ0105", "synonyms": ["FAQ01-Heat Water/Make Coffee/Stove Off"]}, {"conceptId": "C111504", "definition": "Functional Activities Questionnaire - Preparing a balanced meal.", "preferredTerm": "FAQ - Prepare a Meal", "submissionValue": "FAQ0106", "synonyms": ["FAQ01-Preparing a Balanced Meal"]}, {"conceptId": "C111505", "definition": "Functional Activities Questionnaire - Keeping track of current events.", "preferredTerm": "FAQ - Keep Track of Current Events", "submissionValue": "FAQ0107", "synonyms": ["FAQ01-Keeping Track of Current Events"]}, {"conceptId": "C111506", "definition": "Functional Activities Questionnaire - Paying attention to, understanding, discussing TV, book, magazine.", "preferredTerm": "FAQ - Pay Attention, Understand, Discuss", "submissionValue": "FAQ0108", "synonyms": ["FAQ01-Paying Attention"]}, {"conceptId": "C111507", "definition": "Functional Activities Questionnaire - Remembering appointments, family occasions, holidays, medications.", "preferredTerm": "FAQ - Remember", "submissionValue": "FAQ0109", "synonyms": ["FAQ01-Remembering"]}, {"conceptId": "C111508", "definition": "Functional Activities Questionnaire - Traveling out of neighborhood, driving, arranging to take buses.", "preferredTerm": "FAQ - Travel", "submissionValue": "FAQ0110", "synonyms": ["FAQ01-Traveling"]}, {"conceptId": "C111509", "definition": "Functional Activities Questionnaire - Total Score.", "preferredTerm": "FAQ - Total Score", "submissionValue": "FAQ0111", "synonyms": ["FAQ01-Total Score"]}]}