{"_links": {"parentPackage": {"href": "/mdr/ct/packages/sdtmct-2019-09-27", "title": "SDTM Controlled Terminology Package 39 Effective 2019-09-27", "type": "Terminology"}, "priorVersion": {"href": "/mdr/ct/packages/sdtmct-2019-06-28/codelists/C114118", "title": "CDISC SDTM Protocol Milestone Terminology", "type": "Code List"}, "rootItem": {"href": "/mdr/root/ct/sdtmct/codelists/C114118", "title": "Version-agnostic anchor resource for codelist C114118", "type": "Root Value Domain"}, "self": {"href": "/mdr/ct/packages/sdtmct-2019-09-27/codelists/C114118", "title": "CDISC SDTM Protocol Milestone Terminology", "type": "Code List"}}, "conceptId": "C114118", "definition": "A terminology codelist relevant to protocol-specified, point-in-time events during a study.", "extensible": "true", "name": "Protocol Milestone", "preferredTerm": "CDISC SDTM Protocol Milestone Terminology", "submissionValue": "PROTMLST", "synonyms": ["Protocol Milestone"], "terms": [{"conceptId": "C132447", "definition": "The subject has fulfilled the criteria needed to enter or continue in the study.", "preferredTerm": "Eligibility Criteria Met By Subject", "submissionValue": "ELIGIBILITY CRITERIA MET"}, {"conceptId": "C161417", "definition": "The subject has met eligibility criteria and is enrolled in the study. The subject may or may not subsequently be randomized.", "preferredTerm": "Subject Entered Into Trial", "submissionValue": "ENTERED INTO TRIAL"}, {"conceptId": "C161418", "definition": "Assent given by a minor or adult who is unable to give informed consent on their own behalf, to participate in a clinical trial. Assent must be accompanied by consent from a parent or legal guardian for full participation in the study.", "preferredTerm": "Informed Assent", "submissionValue": "INFORMED ASSENT OBTAINED"}, {"conceptId": "C16735", "definition": "Consent given by a subject, or in the case of an individual that can only give assent, by a parent or legal guardian, for the participation in a clinical study only after having achieved an understanding of both the relevant medical facts and the relevant risks involved.", "preferredTerm": "Informed Consent", "submissionValue": "INFORMED CONSENT OBTAINED"}, {"conceptId": "C114209", "definition": "Participants are assigned to arms of a clinical trial by chance.", "preferredTerm": "Subject is Randomized", "submissionValue": "RANDOMIZED"}]}