{"_links": {"parentPackage": {"href": "/mdr/ct/packages/sdtmct-2019-09-27", "title": "SDTM Controlled Terminology Package 39 Effective 2019-09-27", "type": "Terminology"}, "priorVersion": {"href": "/mdr/ct/packages/sdtmct-2019-06-28/codelists/C120527", "title": "CDISC SDTM Microbiology Test Code Terminology", "type": "Code List"}, "rootItem": {"href": "/mdr/root/ct/sdtmct/codelists/C120527", "title": "Version-agnostic anchor resource for codelist C120527", "type": "Root Value Domain"}, "self": {"href": "/mdr/ct/packages/sdtmct-2019-09-27/codelists/C120527", "title": "CDISC SDTM Microbiology Test Code Terminology", "type": "Code List"}}, "conceptId": "C120527", "definition": "Terminology relevant to the microbiology test codes of the CDISC Study Data Tabulation Model.", "extensible": "true", "name": "Microbiology Test Code", "preferredTerm": "CDISC SDTM Microbiology Test Code Terminology", "submissionValue": "MBTESTCD", "synonyms": ["Microbiology Test Code"], "terms": [{"conceptId": "C111125", "definition": "A measurement of the adenovirus antibody in a biological specimen.", "preferredTerm": "Adenovirus Antibody Measurement", "submissionValue": "ADENOVAB", "synonyms": ["Adenovirus Antibody"]}, {"conceptId": "C154830", "definition": "A measurement of the Adenovirus antigen in a biological specimen.", "preferredTerm": "Adenovirus Antigen Measurement", "submissionValue": "ADENOVAG", "synonyms": ["Adenovirus Antigen"]}, {"conceptId": "C163529", "definition": "null", "preferredTerm": "Adenovirus IgG Antibody Measurement", "submissionValue": "ADVIGGAB"}, {"conceptId": "C163530", "definition": "null", "preferredTerm": "Adenovirus IgM Antibody Measurement", "submissionValue": "ADVIGMAB"}, {"conceptId": "C128981", "definition": "A measurement of any rod-shaped bacteria that resist decolorizing by acid after accepting an aqueous stain solution, due to the mycolic acids in their cell walls.", "preferredTerm": "Acid-Fast Bacilli Measurement", "submissionValue": "AFB", "synonyms": ["Acid-Fast Bacilli"]}, {"conceptId": "C81976", "definition": "A measurement of the anti-Saccharomyces cerevisiae antibody in a biological specimen.", "preferredTerm": "Anti-Saccharomyces cerevisiae Antibody Measurement", "submissionValue": "ASCAB", "synonyms": ["Anti-Saccharomyces cerevisiae Antibody", "Baker's Yeast Antibody"]}, {"conceptId": "C156542", "definition": "A measurement of the Human Parvovirus B19 in a biological specimen.", "preferredTerm": "Human Parvovirus B19 Measurement", "submissionValue": "B19V", "synonyms": ["Human Parvovirus B19"]}, {"conceptId": "C161400", "definition": "A measurement of the bacterial enzyme beta-lactamase in a biological specimen.", "preferredTerm": "Bacterial Beta-lactamase Measurement", "submissionValue": "BACBLACT", "synonyms": ["Bacterial Beta-lactamase"]}, {"conceptId": "C64469", "definition": "A measurement of the bacteria in a biological specimen.", "preferredTerm": "Bacterial Count", "submissionValue": "BACT", "synonyms": ["Bacteria"]}, {"conceptId": "C147310", "definition": "A measurement of the Borrelia burgdorferi IgG and IgM antibodies in a biological specimen.", "preferredTerm": "Borrelia burgdorferi IgG and IgM Antibody Measurement", "submissionValue": "BBIGGMAB", "synonyms": ["B. burgdorferi IgG and IgM Antibody", "Borrelia burgdorferi IgG and IgM Antibody"]}, {"conceptId": "C122098", "definition": "A measurement of the total Borrelia burgdorferi antibody in a biological specimen.", "preferredTerm": "Borrelia Burgdorferi Antibody Measurement", "submissionValue": "BBRAB", "synonyms": ["Borrelia burgdorferi Antibody", "Lyme Antibody"]}, {"conceptId": "C122099", "definition": "A measurement of the Borrelia burgdorferi IgA antibody in a biological specimen.", "preferredTerm": "Borrelia Burgdorferi IgA Antibody Measurement", "submissionValue": "BBRIGAAB", "synonyms": ["Borrelia burgdorferi IgA Antibody", "Lyme IgA Antibody"]}, {"conceptId": "C122100", "definition": "A measurement of the Borrelia burgdorferi IgG antibody in a biological specimen.", "preferredTerm": "Borrelia Burgdorferi IgG Antibody Measurement", "submissionValue": "BBRIGGAB", "synonyms": ["Borrelia burgdorferi IgG Antibody", "Lyme IgG Antibody"]}, {"conceptId": "C122101", "definition": "A measurement of the Borrelia burgdorferi IgM antibody in a biological specimen.", "preferredTerm": "Borrelia Burgdorferi IgM Antibody Measurement", "submissionValue": "BBRIGMAB", "synonyms": ["Borrelia burgdorferi IgM Antibody", "Lyme IgM Antibody"]}, {"conceptId": "C147456", "definition": "A measurement of the Burkholderia cepacia in a biological specimen.", "preferredTerm": "Burkholderia cepacia Measurement", "submissionValue": "BCEPACIA", "synonyms": ["B. cepacia", "Burkholderia cepacia", "Pseudomonas cepacia"]}, {"conceptId": "C154820", "definition": "A measurement of the bacterial sialidase enzyme in a biological specimen.", "preferredTerm": "Bacterial Sialidase Measurement", "submissionValue": "BCTSILDS", "synonyms": ["Bacterial Sialidase"]}, {"conceptId": "C160937", "definition": "A measurement of the beta-lactamase negative bacteria in a biological specimen.", "preferredTerm": "Beta-lactamase Negative Bacteria Measurement", "submissionValue": "BLNBAC", "synonyms": ["Beta-lactamase Negative Bacteria"]}, {"conceptId": "C160936", "definition": "A measurement of the beta-lactamase positive bacteria in a biological specimen.", "preferredTerm": "Beta-lactamase Positive Bacteria Measurement", "submissionValue": "BLPBAC", "synonyms": ["Beta-lactamase Positive Bacteria"]}, {"conceptId": "C154832", "definition": "A measurement of the Bordetella pertussis antigen in a biological specimen.", "preferredTerm": "Bordetella pertussis Antigen Measurement", "submissionValue": "BPEAG", "synonyms": ["Bordetella pertussis Antigen"]}, {"conceptId": "C163531", "definition": "null", "preferredTerm": "Bordetella pertussis Serotype Fimbrae 2/3 Antibody Measurement", "submissionValue": "BPEF23AB"}, {"conceptId": "C163532", "definition": "null", "preferredTerm": "Bordetella pertussis Filament Haemagglutinin Antibody Measurement", "submissionValue": "BPEFHAAB"}, {"conceptId": "C163533", "definition": "null", "preferredTerm": "Bordetella pertussis Pertactin Antibody Measurement", "submissionValue": "BPEPRNAB"}, {"conceptId": "C163534", "definition": "null", "preferredTerm": "Bordetella pertussis Toxin Antibody Measurement", "submissionValue": "BPETXNAB"}, {"conceptId": "C139113", "definition": "A measurement of the organisms that are not assigned to the species level but are assigned to the Burkholderia genus level in a biological specimen.", "preferredTerm": "Burkholderia Measurement", "submissionValue": "BURKHOLD", "synonyms": ["Burkholderia"]}, {"conceptId": "C130096", "definition": "A measurement of the Mucor racemosus IgE antibody in a biological specimen.", "preferredTerm": "Mucor racemosus IgE Measurement", "submissionValue": "C130096", "synonyms": ["Mucor racemosus IgE Antibody"]}, {"conceptId": "C130097", "definition": "A measurement of the Mucor racemosus IgA antibody in a biological specimen.", "preferredTerm": "Mucor racemosus IgA Measurement", "submissionValue": "C130097", "synonyms": ["Mucor racemosus IgA Antibody"]}, {"conceptId": "C130098", "definition": "A measurement of the Mucor racemosus IgG antibody in a biological specimen.", "preferredTerm": "Mucor racemosus IgG Measurement", "submissionValue": "C130098", "synonyms": ["Mucor racemosus IgG Antibody"]}, {"conceptId": "C130099", "definition": "A measurement of the Mucor racemosus IgG4 antibody in a biological specimen", "preferredTerm": "Mucor racemosus IgG4 Measurement", "submissionValue": "C130099", "synonyms": ["Mucor racemosus IgG4 Antibody"]}, {"conceptId": "C130144", "definition": "A measurement of the Aspergillus fumigatus IgE antibody in a biological specimen.", "preferredTerm": "Aspergillus fumigatus Antigen IgE Antibody Measurement", "submissionValue": "C130144", "synonyms": ["Aspergillus fumigatus IgE Antibody"]}, {"conceptId": "C130145", "definition": "A measurement of the Aspergillus fumigatus IgG antibody in a biological specimen.", "preferredTerm": "Aspergillus fumigatus Antigen IgG Antibody Measurement", "submissionValue": "C130145", "synonyms": ["Aspergillus fumigatus IgG Antibody"]}, {"conceptId": "C130146", "definition": "A measurement of the Penicillium notatum IgE antibody in a biological specimen.", "preferredTerm": "Penicillium notatum Antigen IgE Antibody Measurement", "submissionValue": "C130146", "synonyms": ["Penicillium chrysogenum IgE Antibody", "Penicillium notatum IgE Antibody"]}, {"conceptId": "C130147", "definition": "A measurement of the Penicillium notatum IgA antibody in a biological specimen.", "preferredTerm": "Penicillium notatum Antigen IgA Antibody Measurement", "submissionValue": "C130147", "synonyms": ["Penicillium chrysogenum IgA Antibody", "Penicillium notatum IgA Antibody"]}, {"conceptId": "C130148", "definition": "A measurement of the Penicillium notatum IgG antibody in a biological specimen.", "preferredTerm": "Penicillium notatum Antigen IgG Antibody Measurement", "submissionValue": "C130148", "synonyms": ["Penicillium chrysogenum IgG Antibody", "Penicillium notatum IgG Antibody"]}, {"conceptId": "C130149", "definition": "A measurement of the Penicillium notatum IgG4 antibody in a biological specimen.", "preferredTerm": "Penicillium notatum Antigen IgG4 Antibody Measurement", "submissionValue": "C130149", "synonyms": ["Penicillium chrysogenum IgG4 Antibody", "Penicillium notatum IgG4 Antibody"]}, {"conceptId": "C130150", "definition": "A measurement of the Alternaria alternata IgE antibody in a biological specimen.", "preferredTerm": "Alternaria tenuis alternata Antigen IgE Antibody Measurement", "submissionValue": "C130150", "synonyms": ["Alternaria alternata IgE Antibody", "Alternaria tenuis IgE Antibody"]}, {"conceptId": "C130151", "definition": "A measurement of the Alternaria alternata IgA antibody in a biological specimen.", "preferredTerm": "Alternaria tenuis alternata Antigen IgA Antibody Measurement", "submissionValue": "C130151", "synonyms": ["Alternaria alternata IgA Antibody", "Alternaria tenuis IgA Antibody"]}, {"conceptId": "C130152", "definition": "A measurement of the Alternaria alternata IgG antibody in a biological specimen.", "preferredTerm": "Alternaria tenuis alternata Antigen IgG Antibody Measurement", "submissionValue": "C130152", "synonyms": ["Alternaria alternata IgG Antibody", "Alternaria tenuis IgG Antibody"]}, {"conceptId": "C130153", "definition": "A measurement of the Alternaria alternata IgG4 antibody in a biological specimen.", "preferredTerm": "Alternaria tenuis alternata Antigen IgG4 Antibody Measurement", "submissionValue": "C130153", "synonyms": ["Alternaria alternata IgG4 Antibody", "Alternaria tenuis IgG4 Antibody"]}, {"conceptId": "C142249", "definition": "A measurement of the Streptococcus pneumoniae serotype 1 IgG antibody in a biological specimen.", "preferredTerm": "Streptococcus pneumoniae Serotype 1 IgG Antibody Measurement", "submissionValue": "C142249", "synonyms": ["S. pneumonia Sero 1 IgG AB", "Streptococcus pneumoniae Serotype 1 IgG Antibody"]}, {"conceptId": "C142250", "definition": "A measurement of the Streptococcus pneumoniae serotype 2 IgG antibody in a biological specimen.", "preferredTerm": "Streptococcus pneumoniae Serotype 2 IgG Antibody Measurement", "submissionValue": "C142250", "synonyms": ["S. pneumonia Sero 2 IgG AB", "Streptococcus pneumoniae Serotype 2 IgG Antibody"]}, {"conceptId": "C142251", "definition": "A measurement of the Streptococcus pneumoniae serotype 3 IgG antibody in a biological specimen.", "preferredTerm": "Streptococcus pneumoniae Serotype 3 IgG Antibody Measurement", "submissionValue": "C142251", "synonyms": ["S. pneumonia Sero 3 IgG AB", "Streptococcus pneumoniae Serotype 3 IgG Antibody"]}, {"conceptId": "C142252", "definition": "A measurement of the Streptococcus pneumoniae serotype 4 IgG antibody in a biological specimen.", "preferredTerm": "Streptococcus pneumoniae Serotype 4 IgG Antibody Measurement", "submissionValue": "C142252", "synonyms": ["S. pneumonia Sero 4 IgG AB", "Streptococcus pneumoniae Serotype 4 IgG Antibody"]}, {"conceptId": "C142253", "definition": "A measurement of the Streptococcus pneumoniae serotype 5 IgG antibody in a biological specimen.", "preferredTerm": "Streptococcus pneumoniae Serotype 5 IgG Antibody Measurement", "submissionValue": "C142253", "synonyms": ["S. pneumonia Sero 5 IgG AB", "Streptococcus pneumoniae Serotype 5 IgG Antibody"]}, {"conceptId": "C142254", "definition": "A measurement of the Streptococcus pneumoniae serotype 6B IgG antibody in a biological specimen.", "preferredTerm": "Streptococcus pneumoniae Serotype 6B IgG Antibody Measurement", "submissionValue": "C142254", "synonyms": ["S. pneumonia Sero 6B IgG AB", "Streptococcus pneumoniae Serotype 6B IgG Antibody"]}, {"conceptId": "C142255", "definition": "A measurement of the Streptococcus pneumoniae serotype 7F IgG antibody in a biological specimen.", "preferredTerm": "Streptococcus pneumoniae Serotype 7F IgG Antibody Measurement", "submissionValue": "C142255", "synonyms": ["S. pneumonia Sero 7F IgG AB", "Streptococcus pneumoniae Serotype 7F IgG Antibody"]}, {"conceptId": "C142256", "definition": "A measurement of the Streptococcus pneumoniae serotype 8 IgG antibody in a biological specimen.", "preferredTerm": "Streptococcus pneumoniae Serotype 8 IgG Antibody Measurement", "submissionValue": "C142256", "synonyms": ["S. pneumonia Sero 8 IgG AB", "Streptococcus pneumoniae Serotype 8 IgG Antibody"]}, {"conceptId": "C142257", "definition": "A measurement of the Streptococcus pneumoniae serotype 9N IgG antibody in a biological specimen.", "preferredTerm": "Streptococcus pneumoniae Serotype 9N IgG Antibody Measurement", "submissionValue": "C142257", "synonyms": ["S. pneumonia Sero 9N IgG AB", "Streptococcus pneumoniae Serotype 9N IgG Antibody"]}, {"conceptId": "C142258", "definition": "A measurement of the Streptococcus pneumoniae serotype 9V IgG antibody in a biological specimen.", "preferredTerm": "Streptococcus pneumoniae Serotype 9V IgG Antibody Measurement", "submissionValue": "C142258", "synonyms": ["S. pneumonia Sero 9V IgG AB", "Streptococcus pneumoniae Serotype 9V IgG Antibody"]}, {"conceptId": "C142259", "definition": "A measurement of the Streptococcus pneumoniae serotype 10A IgG antibody in a biological specimen.", "preferredTerm": "Streptococcus pneumoniae Serotype 10A IgG Antibody Measurement", "submissionValue": "C142259", "synonyms": ["S. pneumonia Sero 10A IgG AB", "Streptococcus pneumoniae Serotype 10A IgG Antibody"]}, {"conceptId": "C142260", "definition": "A measurement of the Streptococcus pneumoniae serotype 11A IgG antibody in a biological specimen.", "preferredTerm": "Streptococcus pneumoniae Serotype 11A IgG Antibody Measurement", "submissionValue": "C142260", "synonyms": ["S. pneumonia Sero 11A IgG AB", "Streptococcus pneumoniae Serotype 11A IgG Antibody"]}, {"conceptId": "C142261", "definition": "A measurement of the Streptococcus pneumoniae serotype 12F IgG antibody in a biological specimen.", "preferredTerm": "Streptococcus pneumoniae Serotype 12F IgG Antibody Measurement", "submissionValue": "C142261", "synonyms": ["S. pneumonia Sero 12F IgG AB", "Streptococcus pneumoniae Serotype 12F IgG Antibody"]}, {"conceptId": "C142262", "definition": "A measurement of the Streptococcus pneumoniae serotype 14 IgG antibody in a biological specimen.", "preferredTerm": "Streptococcus pneumoniae Serotype 14 IgG Antibody Measurement", "submissionValue": "C142262", "synonyms": ["S. pneumonia Sero 14 IgG AB", "Streptococcus pneumoniae Serotype 14 IgG Antibody"]}, {"conceptId": "C142263", "definition": "A measurement of the Streptococcus pneumoniae serotype 15B IgG antibody in a biological specimen.", "preferredTerm": "Streptococcus pneumoniae Serotype 15B IgG Antibody Measurement", "submissionValue": "C142263", "synonyms": ["S. pneumonia Sero 15B IgG AB", "Streptococcus pneumoniae Serotype 15B IgG Antibody"]}, {"conceptId": "C142264", "definition": "A measurement of the Streptococcus pneumoniae serotype 17F IgG antibody in a biological specimen.", "preferredTerm": "Streptococcus pneumoniae Serotype 17F IgG Antibody Measurement", "submissionValue": "C142264", "synonyms": ["S. pneumonia Sero 17F IgG AB", "Streptococcus pneumoniae Serotype 17F IgG Antibody"]}, {"conceptId": "C142265", "definition": "A measurement of the Streptococcus pneumoniae serotype 18C IgG antibody in a biological specimen.", "preferredTerm": "Streptococcus pneumoniae Serotype 18C IgG Antibody Measurement", "submissionValue": "C142265", "synonyms": ["S. pneumonia Sero 18C IgG AB", "Streptococcus pneumoniae Serotype 18C IgG Antibody"]}, {"conceptId": "C142266", "definition": "A measurement of the Streptococcus pneumoniae serotype 19F IgG antibody in a biological specimen.", "preferredTerm": "Streptococcus pneumoniae Serotype 19F IgG Antibody Measurement", "submissionValue": "C142266", "synonyms": ["S. pneumonia Sero 19F IgG AB", "Streptococcus pneumoniae Serotype 19F IgG Antibody"]}, {"conceptId": "C142267", "definition": "A measurement of the Streptococcus pneumoniae serotype 19A IgG antibody in a biological specimen.", "preferredTerm": "Streptococcus pneumoniae Serotype 19A IgG Antibody Measurement", "submissionValue": "C142267", "synonyms": ["S. pneumonia Sero 19A IgG AB", "Streptococcus pneumoniae Serotype 19A IgG Antibody"]}, {"conceptId": "C142268", "definition": "A measurement of the Streptococcus pneumoniae serotype 20 IgG antibody in a biological specimen.", "preferredTerm": "Streptococcus pneumoniae Serotype 20 IgG Antibody Measurement", "submissionValue": "C142268", "synonyms": ["S. pneumonia Sero 20 IgG AB", "Streptococcus pneumoniae Serotype 20 IgG Antibody"]}, {"conceptId": "C142269", "definition": "A measurement of the Streptococcus pneumoniae serotype 22F IgG antibody in a biological specimen.", "preferredTerm": "Streptococcus pneumoniae Serotype 22F IgG Antibody Measurement", "submissionValue": "C142269", "synonyms": ["S. pneumonia Sero 22F IgG AB", "Streptococcus pneumoniae Serotype 22F IgG Antibody"]}, {"conceptId": "C142270", "definition": "A measurement of the Streptococcus pneumoniae serotype 23F IgG antibody in a biological specimen.", "preferredTerm": "Streptococcus pneumoniae Serotype 23F IgG Antibody Measurement", "submissionValue": "C142270", "synonyms": ["S. pneumonia Sero 23F IgG AB", "Streptococcus pneumoniae Serotype 23F IgG Antibody"]}, {"conceptId": "C142271", "definition": "A measurement of the Streptococcus pneumoniae serotype 33F IgG antibody in a biological specimen.", "preferredTerm": "Streptococcus pneumoniae Serotype 33F IgG Antibody Measurement", "submissionValue": "C142271", "synonyms": ["S. pneumonia Sero 33F IgG AB", "Streptococcus pneumoniae Serotype 33F IgG Antibody"]}, {"conceptId": "C147286", "definition": "A measurement of the Cladosporium herbarum antigen IgE antibody in a biological specimen.", "preferredTerm": "Cladosporium herbarum IgE Antibody Measurement", "submissionValue": "C147286", "synonyms": ["Cladosporium herbarum IgE Antibody"]}, {"conceptId": "C150639", "definition": "A measurement of the 027/NAP1/BI strain of Clostridium difficile in a biological specimen.", "preferredTerm": "Clostridium difficile 027/NAP1/BI Measurement", "submissionValue": "C150639", "synonyms": ["Clostridium difficile 027/NAP1/BI"]}, {"conceptId": "C163521", "definition": "null", "preferredTerm": "HIV-2 gp36 Antibody Measurement", "submissionValue": "C163521"}, {"conceptId": "C163522", "definition": "null", "preferredTerm": "HIV-2 gp140 Antibody Measurement", "submissionValue": "C163522"}, {"conceptId": "C163523", "definition": "null", "preferredTerm": "HIV-1 p31 Antibody Measurement", "submissionValue": "C163523"}, {"conceptId": "C163524", "definition": "null", "preferredTerm": "HIV-1 gp160 Antibody Measurement", "submissionValue": "C163524"}, {"conceptId": "C163525", "definition": "null", "preferredTerm": "HIV-1 p24 Antibody Measurement", "submissionValue": "C163525"}, {"conceptId": "C163526", "definition": "null", "preferredTerm": "HIV-1 gp41 Antibody Measurement", "submissionValue": "C163526"}, {"conceptId": "C163527", "definition": "null", "preferredTerm": "Fusarium proliferatum IgE Antibody Measurement", "submissionValue": "C163527"}, {"conceptId": "C163528", "definition": "null", "preferredTerm": "Malassezia Species IgE Antibody Measurement", "submissionValue": "C163528"}, {"conceptId": "C161404", "definition": "A measurement of the Candida albicans in a biological specimen.", "preferredTerm": "Candida albicans Measurement", "submissionValue": "CAL", "synonyms": ["Candida albicans", "Candida stellatoidea"]}, {"conceptId": "C150637", "definition": "A measurement of the Clostridium difficile in a biological specimen.", "preferredTerm": "Clostridium difficile Measurement", "submissionValue": "CDF", "synonyms": ["Clostridium difficile"]}, {"conceptId": "C150858", "definition": "A measurement of the Clostridium difficile A and/or B toxin in a biological specimen.", "preferredTerm": "Clostridium difficile A and/or B Toxin Measurement", "submissionValue": "CDFABTOX", "synonyms": ["Clostridium difficile A/B Toxin"]}, {"conceptId": "C150863", "definition": "A measurement of the Clostridium difficile toxin A in a biological specimen.", "preferredTerm": "Clostridium difficile A Toxin Measurement", "submissionValue": "CDFATOX", "synonyms": ["Clostridium difficile A Toxin"]}, {"conceptId": "C150864", "definition": "A measurement of the Clostridium difficile toxin B in a biological specimen.", "preferredTerm": "Clostridium difficile B Toxin Measurement", "submissionValue": "CDFBTOX", "synonyms": ["Clostridium difficile B Toxin"]}, {"conceptId": "C150866", "definition": "A measurement of the Clostridium difficile binary toxin (cdt) DNA in a biological specimen.", "preferredTerm": "Clostridium difficile cdt DNA Measurement", "submissionValue": "CDFCDTD", "synonyms": ["Clostridium difficile cdt DNA"]}, {"conceptId": "C150857", "definition": "A measurement of the Clostridium difficile glutamate dehydrogenase in a biological specimen.", "preferredTerm": "C. difficile Glutamate Dehydrogenase Measurement", "submissionValue": "CDFGDH", "synonyms": ["C. difficile Glutamate Dehydrogenase", "Clostridium difficile Glutamate Dehydrogenase"]}, {"conceptId": "C150859", "definition": "A measurement of the Clostridium difficile toxin A (tcdA) DNA in a biological specimen.", "preferredTerm": "Clostridium difficile tcdA DNA Measurement", "submissionValue": "CDFTCDAD", "synonyms": ["Clostridium difficile tcdA DNA"]}, {"conceptId": "C150860", "definition": "A measurement of the Clostridium difficile toxin B (tcdB) DNA in a biological specimen.", "preferredTerm": "Clostridium difficile tcdB DNA Measurement", "submissionValue": "CDFTCDBD", "synonyms": ["Clostridium difficile tcdB DNA"]}, {"conceptId": "C150861", "definition": "A measurement of the Clostridium difficile regulatory protein (tcdC) DNA in a biological specimen.", "preferredTerm": "Clostridium difficile tcdC DNA Measurement", "submissionValue": "CDFTCDCD", "synonyms": ["Clostridium difficile tcdC DNA"]}, {"conceptId": "C103381", "definition": "A measurement of the Clostridium difficile toxin in a biological specimen.", "preferredTerm": "Clostridium difficile Toxin Measurement", "submissionValue": "CDFTXN", "synonyms": ["Clostridium difficile Toxin"]}, {"conceptId": "C163535", "definition": "null", "preferredTerm": "Corynebacterium diphtheriae Toxoid Antibody Measurement", "submissionValue": "CDITDAB"}, {"conceptId": "C135404", "definition": "A measurement of the Chikungunya virus antibody in a biological specimen.", "preferredTerm": "Chikungunya Virus Antibody Measurement", "submissionValue": "CHKAB", "synonyms": ["Chikungunya Virus Antibody"]}, {"conceptId": "C154828", "definition": "A measurement of the Cytomegalovirus antigen in a biological specimen.", "preferredTerm": "Cytomegalovirus Antigen Measurement", "submissionValue": "CMVAG", "synonyms": ["Cytomegalovirus Antigen"]}, {"conceptId": "C161394", "definition": "A measurement of the Cytomegalovirus DNA in a biological specimen.", "preferredTerm": "Cytomegalovirus DNA Measurement", "submissionValue": "CMVDNA", "synonyms": ["Cytomegalovirus DNA"]}, {"conceptId": "C96596", "definition": "A measurement of the cytomegalovirus IgG antibody in a biological specimen.", "preferredTerm": "Cytomegalovirus IgG Antibody Measurement", "submissionValue": "CMVIGGAB", "synonyms": ["Cytomegalovirus IgG Antibody"]}, {"conceptId": "C96597", "definition": "A measurement of the cytomegalovirus IgM antibody in a biological specimen.", "preferredTerm": "Cytomegalovirus IgM Antibody Measurement", "submissionValue": "CMVIGMAB", "synonyms": ["Cytomegalovirus IgM Antibody"]}, {"conceptId": "C111160", "definition": "A measurement of the coccidioides antibody in a biological specimen.", "preferredTerm": "Coccidioides Antibody Measurement", "submissionValue": "COCCAB", "synonyms": ["Coccidioides Antibody"]}, {"conceptId": "C154831", "definition": "A measurement of the Cryptosporidium parvum antigen in a biological specimen.", "preferredTerm": "Cryptosporidium parvum Antigen Measurement", "submissionValue": "CPAAG", "synonyms": ["Cryptosporidium parvum Antigen"]}, {"conceptId": "C92432", "definition": "A measurement of the Chlamydia pneumoniae IgA antibody in a biological specimen.", "preferredTerm": "Chlamydia pneumoniae IgA Antibody Measurement", "submissionValue": "CPNIGAAB", "synonyms": ["Chlamydia pneumoniae IgA Antibody"]}, {"conceptId": "C163536", "definition": "null", "preferredTerm": "Chlamydia pneumoniae IgG Antibody Measurement", "submissionValue": "CPNIGGAB"}, {"conceptId": "C92433", "definition": "A measurement of the Chlamydia pneumoniae IgM in a biological specimen.", "preferredTerm": "Chlamydia pneumoniae IgM Antibody Measurement", "submissionValue": "CPNIGMAB", "synonyms": ["Chlamydia pneumoniae IgM Antibody"]}, {"conceptId": "C154829", "definition": "A measurement of the antigen from any member of the genus Cryptococcus in a biological specimen.", "preferredTerm": "Cryptococcus Antigen Measurement", "submissionValue": "CRYPTCAG", "synonyms": ["Cryptococcus Antigen"]}, {"conceptId": "C116194", "definition": "A measurement of the cholera toxin B subunit IgG antibody in a biological specimen.", "preferredTerm": "Cholera Toxin B Subunit IgG Antibody Measurement", "submissionValue": "CTBIGGAB", "synonyms": ["Cholera Toxin B Subunit IgG Antibody"]}, {"conceptId": "C163537", "definition": "null", "preferredTerm": "Clostridium tetani Toxin Antibody Measurement", "submissionValue": "CTETXNAB"}, {"conceptId": "C154835", "definition": "A measurement of the Chlamydia trachomatis antigen in a biological specimen.", "preferredTerm": "Chlamydia trachomatis Antigen Measurement", "submissionValue": "CTRAG", "synonyms": ["Chlamydia trachomatis Antigen"]}, {"conceptId": "C161392", "definition": "A measurement of the Chlamydia trachomatis DNA in a biological specimen.", "preferredTerm": "Chlamydia trachomatis DNA Measurement", "submissionValue": "CTRDNA", "synonyms": ["Chlamydia trachomatis DNA"]}, {"conceptId": "C100464", "definition": "A measurement of the Chlamydia trachomatis IgA antibody in a biological specimen.", "preferredTerm": "Chlamydia trachomatis IgA Antibody Measurement", "submissionValue": "CTRIGAAB", "synonyms": ["Chlamydia trachomatis IgA Antibody"]}, {"conceptId": "C100466", "definition": "A measurement of the Chlamydia trachomatis IgG antibody in a biological specimen.", "preferredTerm": "Chlamydia trachomatis IgG Antibody Measurement", "submissionValue": "CTRIGGAB", "synonyms": ["Chlamydia trachomatis IgG Antibody"]}, {"conceptId": "C100465", "definition": "A measurement of the Chlamydia trachomatis IgM antibody in a biological specimen.", "preferredTerm": "Chlamydia trachomatis IgM Antibody Measurement", "submissionValue": "CTRIGMAB", "synonyms": ["Chlamydia trachomatis IgM Antibody"]}, {"conceptId": "C103382", "definition": "A measurement of the Clostridium tetani IgG antibody in a biological specimen.", "preferredTerm": "Clostridium tetani IgG Antibody Measurement", "submissionValue": "CTTIGGAB", "synonyms": ["Clostridium tetani IgG Antibody"]}, {"conceptId": "C135406", "definition": "A measurement of the Clostridium tetani toxoid IgG antibody in a biological specimen.", "preferredTerm": "Clostridium tetani Toxoid IgG Antibody Measurement", "submissionValue": "CTXIGGAB", "synonyms": ["Clostridium tetani Toxoid IgG Antibody"]}, {"conceptId": "C147332", "definition": "A measurement of the dengue virus antibody in a biological specimen.", "preferredTerm": "Dengue Virus Antibody Measurement", "submissionValue": "DNVAB", "synonyms": ["Dengue Virus Antibody"]}, {"conceptId": "C103388", "definition": "A measurement of the Diphtheria IgG antibodies in a biological specimen.", "preferredTerm": "Diphtheria IgG Antibody Measurement", "submissionValue": "DPTIGGAB", "synonyms": ["Diphtheria IgG Antibody"]}, {"conceptId": "C96600", "definition": "A measurement of the Epstein-Barr capsid IgG antibody in a biological specimen.", "preferredTerm": "Epstein-Barr Capsid IgG Antibody Measurement", "submissionValue": "EBCIGGAB", "synonyms": ["Epstein-Barr Capsid IgG Antibody"]}, {"conceptId": "C96601", "definition": "A measurement of the Epstein-Barr capsid IgM antibody in a biological specimen.", "preferredTerm": "Epstein-Barr Capsid IgM Antibody Measurement", "submissionValue": "EBCIGMAB", "synonyms": ["Epstein-Barr Capsid IgM Antibody"]}, {"conceptId": "C96602", "definition": "A measurement of the Epstein-Barr early antigen in a biological specimen.", "preferredTerm": "Epstein-Barr Early Antigen Measurement", "submissionValue": "EBEAG", "synonyms": ["Epstein-Barr Early Antigen"]}, {"conceptId": "C122116", "definition": "A measurement of the Epstein-Barr early diffuse antigen IgG antibody in a biological specimen.", "preferredTerm": "Epstein-Barr Early D Antigen IgG Antibody Measurement", "submissionValue": "EBEDIGAB", "synonyms": ["Epstein-Barr Early D Antigen IgG Ab"]}, {"conceptId": "C106518", "definition": "A measurement of the Epstein-Barr nuclear antigen 1 IgG antibody in a biological specimen.", "preferredTerm": "Epstein-Barr Nuclear Antigen 1 IgG Ab Measurement", "submissionValue": "EBN1IGAB", "synonyms": ["Epstein-Barr Nuclear Antigen 1 IgG Ab"]}, {"conceptId": "C96603", "definition": "A measurement of the Epstein-Barr nuclear antibody in a biological specimen.", "preferredTerm": "Epstein-Barr Nuclear Antibody Measurement", "submissionValue": "EBNAB", "synonyms": ["Epstein-Barr Nuclear Antibody", "Epstein-Barr Nuclear Antigen Antibody"]}, {"conceptId": "C96604", "definition": "A measurement of the Epstein-Barr nuclear antigen in a biological specimen.", "preferredTerm": "Epstein-Barr Nuclear Antigen Measurement", "submissionValue": "EBNAG", "synonyms": ["Epstein-Barr Nuclear Antigen"]}, {"conceptId": "C135410", "definition": "A measurement of the Ebola virus IgM antibodies in a biological specimen.", "preferredTerm": "Ebola Virus IgM Antibody Measurement", "submissionValue": "EBOIGMAB", "synonyms": ["Ebola Virus IgM Antibody"]}, {"conceptId": "C106519", "definition": "An assessment of Epstein-Barr virus infection based on a panel of EBV antigen antibody tests.", "preferredTerm": "Epstein-Barr Virus Infection Status", "submissionValue": "EBVINTP", "synonyms": ["Epstein-Barr Virus Antibody Profile", "Epstein-Barr Virus Infection Status", "Epstein-Barr Virus Panel"]}, {"conceptId": "C154818", "definition": "A measurement of the total Escherichia coli shiga-like toxin in a biological specimen.", "preferredTerm": "Escherichia coli Shiga-like Toxin Measurement", "submissionValue": "ECLSLTXN", "synonyms": ["Escherichia coli Shiga-like Toxin"]}, {"conceptId": "C161396", "definition": "A measurement of the Enterococcus faecalis in a biological specimen.", "preferredTerm": "Enterococcus faecalis Measurement", "submissionValue": "EFA", "synonyms": ["Streptococcus faecalis"]}, {"conceptId": "C135421", "definition": "A measurement of the flagellates (protozoans that possess flagella) in a biological specimen.", "preferredTerm": "Flagellates Measurement", "submissionValue": "FLAGEL", "synonyms": ["Flagellates"]}, {"conceptId": "C154813", "definition": "A measurement of the fungi in a biological specimen.", "preferredTerm": "Fungi Measurement", "submissionValue": "FUNGI", "synonyms": ["Fungi", "Fungus"]}, {"conceptId": "C147343", "definition": "A measurement of the filamentous fungi in a biological specimen.", "preferredTerm": "Filamentous Fungi Count", "submissionValue": "FUNGIFIL", "synonyms": ["Fungi, Filamentous"]}, {"conceptId": "C147344", "definition": "A measurement of the yeast-like fungi in a biological specimen.", "preferredTerm": "Yeast-Like Fungi Count", "submissionValue": "FUNGYLK", "synonyms": ["Fungi, Yeast-Like"]}, {"conceptId": "C154822", "definition": "A measurement of the Giardia lamblia antigen in a biological specimen.", "preferredTerm": "Giardia lamblia Antigen Measurement", "submissionValue": "GLAAG", "synonyms": ["Giardia lamblia Antigen"]}, {"conceptId": "C154817", "definition": "A measurement of the galactomannan antigen in a biological specimen.", "preferredTerm": "Galactomannan Antigen Measurement", "submissionValue": "GLTAG", "synonyms": ["Galactomannan Antigen"]}, {"conceptId": "C154812", "definition": "A measurement of the gram negative bacteria in a biological specimen.", "preferredTerm": "Gram Negative Bacteria Measurement", "submissionValue": "GMNBAC", "synonyms": ["Gram Negative Bacteria"]}, {"conceptId": "C161401", "definition": "A measurement of the gram negative cocci-shaped bacteria in a biological specimen.", "preferredTerm": "Gram Negative Cocci Measurement", "submissionValue": "GMNCOC", "synonyms": ["Gram Negative Cocci"]}, {"conceptId": "C154811", "definition": "A measurement of the gram positive bacteria in a biological specimen.", "preferredTerm": "Gram Positive Bacteria Measurement", "submissionValue": "GMPBAC", "synonyms": ["Gram Positive Bacteria"]}, {"conceptId": "C161402", "definition": "A measurement of the Gardnerella vaginalis in a biological specimen.", "preferredTerm": "Gardnerella vaginalis Measurement", "submissionValue": "GVA", "synonyms": ["Corynebacterium vaginalis", "Gardnerella vaginalis"]}, {"conceptId": "C92534", "definition": "A measurement of the hepatitis A virus antibody in a biological specimen.", "preferredTerm": "Hepatitis A Antibody Measurement", "submissionValue": "HAAB", "synonyms": ["Hepatitis A Virus Antibody"]}, {"conceptId": "C147457", "definition": "A measurement of the Haemophilus influenza virus in a biological specimen.", "preferredTerm": "Haemophilus influenzae Measurement", "submissionValue": "HAEMINF", "synonyms": ["H. influenzae", "Haemophilus influenzae"]}, {"conceptId": "C147458", "definition": "A measurement of the organisms that are not assigned to the species level but are assigned to the Haemophilus genus level in a biological specimen.", "preferredTerm": "Haemophilus Measurement", "submissionValue": "HAEMOPH", "synonyms": ["Haemophilus"]}, {"conceptId": "C163538", "definition": "null", "preferredTerm": "Hepatitis A Virus IgG Antibody Measurement", "submissionValue": "HAIGGAB"}, {"conceptId": "C92271", "definition": "A measurement of hepatitis A virus IgM antibody in a biological specimen.", "preferredTerm": "Hepatitis A Virus Antibody IgM Measurement", "submissionValue": "HAIGMAB", "synonyms": ["Hepatitis A Virus IgM Antibody"]}, {"conceptId": "C125944", "definition": "A measurement of an unspecified hepatitis B antibody in a biological specimen.", "preferredTerm": "Hepatitis B Virus Antibody Measurement", "submissionValue": "HBAB", "synonyms": ["Hepatitis B Virus Antibody"]}, {"conceptId": "C96660", "definition": "A measurement of the hepatitis B virus core antibody in a biological specimen.", "preferredTerm": "Hepatitis B Virus Core Antibody Measurement", "submissionValue": "HBCAB", "synonyms": ["Hepatitis B Virus Core Antibody"]}, {"conceptId": "C119280", "definition": "A measurement of the hepatitis B virus core IgG antibody in a biological specimen.", "preferredTerm": "Hepatitis B Virus Core IgG Antibody Measurement", "submissionValue": "HBCIGGAB", "synonyms": ["Hepatitis B Virus Core IgG Antibody"]}, {"conceptId": "C96661", "definition": "A measurement of the hepatitis B virus core IgM antibody in a biological specimen.", "preferredTerm": "Hepatitis B Virus Core IgM Antibody Measurement", "submissionValue": "HBCIGMAB", "synonyms": ["Hepatitis B Virus Core IgM Antibody"]}, {"conceptId": "C103404", "definition": "A measurement of the Hepatitis B virus DNA in a biological specimen.", "preferredTerm": "Hepatitis B DNA Measurement", "submissionValue": "HBDNA", "synonyms": ["Hepatitis B Virus DNA"]}, {"conceptId": "C96662", "definition": "A measurement of the hepatitis B e antibody in a biological specimen.", "preferredTerm": "Hepatitis B Virus e Antibody Measurement", "submissionValue": "HBEAB", "synonyms": ["Hepatitis B Virus e Antibody"]}, {"conceptId": "C96663", "definition": "A measurement of the hepatitis B e antigen in a biological specimen.", "preferredTerm": "Hepatitis B Virus e Antigen Measurement", "submissionValue": "HBEAG", "synonyms": ["Hepatitis B Virus e Antigen"]}, {"conceptId": "C74711", "definition": "A measurement of the hepatitis B virus surface antibody in a biological specimen.", "preferredTerm": "Hepatitis B Surface Antibody Measurement", "submissionValue": "HBSAB", "synonyms": ["Anti-HBs", "HBsAb", "Hepatitis B Virus Surface Antibody"]}, {"conceptId": "C64850", "definition": "A measurement of the surface antigen reaction of a biological specimen to the Hepatitis B virus.", "preferredTerm": "Hepatitis B Virus Surface Antigen Measurement", "submissionValue": "HBSAG", "synonyms": ["HBsAg", "Hepatitis B Virus Surface Antigen"]}, {"conceptId": "C92535", "definition": "A measurement of the hepatitis C virus antibody in a biological specimen.", "preferredTerm": "Hepatitis C Antibody Measurement", "submissionValue": "HCAB", "synonyms": ["Hepatitis C Virus Antibody"]}, {"conceptId": "C116196", "definition": "A measurement of the hepatitis C virus antigen in a biological specimen.", "preferredTerm": "Hepatitis C Virus Antigen Measurement", "submissionValue": "HCAG", "synonyms": ["Hepatitis C Virus Antigen"]}, {"conceptId": "C135424", "definition": "A measurement of the hepatitis C virus core antigen in a biological specimen.", "preferredTerm": "Hepatitis C Virus Core Antigen Measurement", "submissionValue": "HCCAG", "synonyms": ["Hepatitis C Virus Core Antigen"]}, {"conceptId": "C154816", "definition": "A measurement of the Histoplasma capsulatum antigen in a biological specimen.", "preferredTerm": "Histoplasma capsulatum Antigen Measurement", "submissionValue": "HCPAG", "synonyms": ["Histoplasma capsulatum Antigen"]}, {"conceptId": "C142330", "definition": "A measurement of the Hepatitis C virus RNA in a biological specimen.", "preferredTerm": "Hepatitis C Virus RNA Measurement", "submissionValue": "HCRNA", "synonyms": ["Hepatitis C Virus RNA"]}, {"conceptId": "C139086", "definition": "A relative measurement (ratio) of the Hepatitis C virus antibody signal in a biological specimen to Hepatitis C virus positive internal control.", "preferredTerm": "HCV Antibody Signal to HCV Antibody Cutoff Ratio Measurement", "submissionValue": "HCVSHCVC", "synonyms": ["HCV Antibody Signal/HCV Antibody Cutoff"]}, {"conceptId": "C96664", "definition": "A measurement of the hepatitis D virus antibody in a biological specimen.", "preferredTerm": "Hepatitis D Virus Antibody Measurement", "submissionValue": "HDAB", "synonyms": ["Hepatitis D Virus Antibody", "Hepatitis Delta Antibody"]}, {"conceptId": "C119281", "definition": "A measurement of the hepatitis D virus IgG antibody in a biological specimen.", "preferredTerm": "Hepatitis D Virus IgG Antibody Measurement", "submissionValue": "HDIGGAB", "synonyms": ["Hepatitis D Virus IgG Antibody"]}, {"conceptId": "C119282", "definition": "A measurement of the hepatitis D virus IgM antibody in a biological specimen.", "preferredTerm": "Hepatitis D Virus IgM Antibody Measurement", "submissionValue": "HDIGMAB", "synonyms": ["Hepatitis D Virus IgM Antibody"]}, {"conceptId": "C119283", "definition": "A measurement of the hepatitis E virus antibody in a biological specimen.", "preferredTerm": "Hepatitis E Virus Antibody Measurement", "submissionValue": "HEAB", "synonyms": ["Hepatitis E Virus Antibody"]}, {"conceptId": "C106526", "definition": "A measurement of IgG antibody to the hepatitis E virus in a biological specimen.", "preferredTerm": "Hepatitis E Virus IgG Antibody Measurement", "submissionValue": "HEIGGAB", "synonyms": ["Hepatitis E Virus IgG Antibody"]}, {"conceptId": "C96665", "definition": "A measurement of the hepatitis E virus IgM antibody in a biological specimen.", "preferredTerm": "Hepatitis E Virus IgM Antibody Measurement", "submissionValue": "HEIGMAB", "synonyms": ["Hepatitis E Virus IgM Antibody"]}, {"conceptId": "C142331", "definition": "A measurement of the Hepatitis E virus RNA in a biological specimen.", "preferredTerm": "Hepatitis E Virus RNA Measurement", "submissionValue": "HERNA", "synonyms": ["Hepatitis E Virus RNA"]}, {"conceptId": "C161395", "definition": "A measurement of the Human Immunodeficiency Virus in a biological specimen.", "preferredTerm": "Human Immunodeficiency Virus Measurement", "submissionValue": "HIV", "synonyms": ["Human Immunodeficiency Virus"]}, {"conceptId": "C92265", "definition": "A measurement of the HIV-1 p24 antigen in a biological specimen.", "preferredTerm": "HIV-1 p24 Antigen Measurement", "submissionValue": "HIV124AG", "synonyms": ["HIV-1 p24 Antigen"]}, {"conceptId": "C74714", "definition": "A measurement of either the HIV-1 or HIV-2 virus antibody in a biological specimen.", "preferredTerm": "HIV-1 HIV-2 Antibody Measurement", "submissionValue": "HIV12AB", "synonyms": ["HIV-1/2 Antibody"]}, {"conceptId": "C163539", "definition": "null", "preferredTerm": "HIV-1/2 Antigen/Antibody Measurement", "submissionValue": "HIV12AGB"}, {"conceptId": "C139085", "definition": "A measurement of the antibody reaction of a biological specimen to either the HIV-1 or HIV-2 virus and the measurement of HIV-1 p24 antigen in a biological specimen.", "preferredTerm": "HIV-1/2 Antibody and HIV-1 p24 Antigen Measurement", "submissionValue": "HIV12P24", "synonyms": ["HIV-1/2 Antibody + HIV-1 p24 Antigen"]}, {"conceptId": "C161393", "definition": "A measurement of the HIV-1 and/or HIV-2 RNA in a biological specimen.", "preferredTerm": "HIV-1/2 RNA Measurement", "submissionValue": "HIV12RNA", "synonyms": ["HIV-1/2 RNA"]}, {"conceptId": "C74713", "definition": "A measurement of the HIV-1 virus antibody in a biological specimen.", "preferredTerm": "HIV-1 Antibody Measurement", "submissionValue": "HIV1AB", "synonyms": ["HIV-1 Antibody"]}, {"conceptId": "C154821", "definition": "A measurement of the HIV-1 antigen in a biological specimen.", "preferredTerm": "HIV-1 Antigen Measurement", "submissionValue": "HIV1AG", "synonyms": ["HIV-1 Antigen"]}, {"conceptId": "C92263", "definition": "A measurement of the HIV-1 group M and O nucleic acids in a biological specimen.", "preferredTerm": "HIV-1 Group M and O Nucleic Acid Measurement", "submissionValue": "HIV1MONA", "synonyms": ["HIV-1 Group M and O Nucleic Acid"]}, {"conceptId": "C92264", "definition": "A measurement of the HIV-1 group O antibody in a biological specimen.", "preferredTerm": "HIV-1 Group O Antibody Measurement", "submissionValue": "HIV1OAB", "synonyms": ["HIV-1 Group O Antibody"]}, {"conceptId": "C158238", "definition": "A measurement of the HIV-1 RNA in a biological specimen.", "preferredTerm": "HIV-1 RNA Measurement", "submissionValue": "HIV1RNA", "synonyms": ["HIV-1 RNA"]}, {"conceptId": "C74715", "definition": "A measurement of the HIV-2 virus antibody in a biological specimen.", "preferredTerm": "HIV-2 Antibody Measurement", "submissionValue": "HIV2AB", "synonyms": ["HIV-2 Antibody"]}, {"conceptId": "C92266", "definition": "A measurement of the HIV-2 nucleic acids in a biological specimen.", "preferredTerm": "HIV-2 Nucleic Acid Measurement", "submissionValue": "HIV2NUAC", "synonyms": ["HIV-2 Nucleic Acid"]}, {"conceptId": "C106527", "definition": "A measurement of the HIV virus antibody in a biological specimen.", "preferredTerm": "HIV Antibody Measurement", "submissionValue": "HIVAB", "synonyms": ["HIV Antibody"]}, {"conceptId": "C154834", "definition": "A measurement of the Human Parainfluenza Type 1 antigen in a biological specimen.", "preferredTerm": "Human Parainfluenza Type 1 Antigen Measurement", "submissionValue": "HPIV1AG", "synonyms": ["Human Parainfluenza Type 1 Antigen"]}, {"conceptId": "C154833", "definition": "A measurement of the Human Parainfluenza antigen in a biological specimen.", "preferredTerm": "Human Parainfluenza Antigen Measurement", "submissionValue": "HPIVAG", "synonyms": ["Human Parainfluenza Antigen"]}, {"conceptId": "C103403", "definition": "A measurement of the Helicobacter pylori IgG antibody in a biological specimen.", "preferredTerm": "Helicobacter pylori IgG Antibody Measurement", "submissionValue": "HPLIGGAB", "synonyms": ["Helicobacter pylori IgG Antibody"]}, {"conceptId": "C127618", "definition": "A measurement of the human papillomavirus 11 antibody in a biological specimen.", "preferredTerm": "Human Papillomavirus 11 Antibody Measurement", "submissionValue": "HPV11AB", "synonyms": ["Human Papillomavirus 11 Antibody"]}, {"conceptId": "C127619", "definition": "A measurement of the human papillomavirus 16 antibody in a biological specimen.", "preferredTerm": "Human Papillomavirus 16 Antibody Measurement", "submissionValue": "HPV16AB", "synonyms": ["Human Papillomavirus 16 Antibody"]}, {"conceptId": "C127620", "definition": "A measurement of the human papillomavirus 18 antibody in a biological specimen.", "preferredTerm": "Human Papillomavirus 18 Antibody Measurement", "submissionValue": "HPV18AB", "synonyms": ["Human Papillomavirus 18 Antibody"]}, {"conceptId": "C127621", "definition": "A measurement of the human papillomavirus 6 antibody in a biological specimen.", "preferredTerm": "Human Papillomavirus 6 Antibody Measurement", "submissionValue": "HPV6AB", "synonyms": ["Human Papillomavirus 6 Antibody"]}, {"conceptId": "C154819", "definition": "A measurement of the Helicobacter pylori antigen in a biological specimen.", "preferredTerm": "Helicobacter pylori Antigen Measurement", "submissionValue": "HPYAG", "synonyms": ["Helicobacter pylori Antigen"]}, {"conceptId": "C96697", "definition": "A measurement of the herpes simplex virus 1 and 2 IgG antibody in a biological specimen.", "preferredTerm": "Herpes Simplex Virus 1/2 IgG Antibody Measurement", "submissionValue": "HS12GGAB", "synonyms": ["HSV-1/2 IgG Ab", "Herpes Simplex Virus 1/2 IgG Antibody"]}, {"conceptId": "C96698", "definition": "A measurement of the herpes simplex virus 1 and 2 IgM antibody in a biological specimen.", "preferredTerm": "Herpes Simplex Virus 1/2 IgM Antibody Measurement", "submissionValue": "HS12GMAB", "synonyms": ["HSV-1/2 IgM Ab", "Herpes Simplex Virus 1/2 IgM Antibody"]}, {"conceptId": "C96666", "definition": "A measurement of the herpes simplex virus 1 IgG antibody in a biological specimen.", "preferredTerm": "Herpes Simplex Virus 1 IgG Antibody Measurement", "submissionValue": "HS1IGGAB", "synonyms": ["HSV-1 IgG Antibody", "Herpes Simplex Virus 1 IgG Antibody"]}, {"conceptId": "C98738", "definition": "A measurement of the Herpes Simplex virus 1 IgM antibodies in a biological specimen.", "preferredTerm": "Herpes Simplex Virus 1 IgM Antibody Measurement", "submissionValue": "HS1IGMAB", "synonyms": ["Herpes Simplex Virus 1 IgM Antibody"]}, {"conceptId": "C96667", "definition": "A measurement of the herpes simplex virus 2 IgG antibody in a biological specimen.", "preferredTerm": "Herpes Simplex Virus 2 IgG Antibody Measurement", "submissionValue": "HS2IGGAB", "synonyms": ["HSV-2 IgG Antibody", "Herpes Simplex Virus 2 IgG Antibody"]}, {"conceptId": "C98739", "definition": "A measurement of the Herpes Simplex virus 2 IgM antibodies in a biological specimen.", "preferredTerm": "Herpes Simplex Virus 2 IgM Antibody Measurement", "submissionValue": "HS2IGMAB", "synonyms": ["Herpes Simplex Virus 2 IgM Antibody"]}, {"conceptId": "C112292", "definition": "A measurement of the herpes simplex virus 6 antibody in a biological specimen.", "preferredTerm": "Herpes Simplex Virus 6 Antibody Measurement", "submissionValue": "HS6AB", "synonyms": ["Herpes Simplex Virus 6 Antibody"]}, {"conceptId": "C122125", "definition": "A measurement of either the HTLV-1 or HTLV-2 virus antibody in a biological specimen.", "preferredTerm": "HTLV-I HTLV-II Antibody Measurement", "submissionValue": "HTLV12AB", "synonyms": ["HTLV-1/2 Antibody", "HTLV-I/II Antibody", "Human T-cell Lymphotropic Virus 1/2 Antibody"]}, {"conceptId": "C81984", "definition": "A measurement of the heterophile antibodies in a biological specimen.", "preferredTerm": "Heterophile Antibody Measurement", "submissionValue": "HTPHAB", "synonyms": ["Heterophile Antibodies"]}, {"conceptId": "C103408", "definition": "A measurement of the Influenza A IgG antibody in a biological specimen.", "preferredTerm": "Influenza A IgG Antibody Measurement", "submissionValue": "IAIGGAB", "synonyms": ["Influenza A IgG Antibody"]}, {"conceptId": "C103409", "definition": "A measurement of the Influenza B IgG antibody in a biological specimen.", "preferredTerm": "Influenza B IgG Antibody Measurement", "submissionValue": "IBIGGAB", "synonyms": ["Influenza B IgG Antibody"]}, {"conceptId": "C120677", "definition": "A measurement of the influenza A antigen in a biological specimen.", "preferredTerm": "Influenza A Antigen Measurement", "submissionValue": "INFAAG", "synonyms": ["Influenza A Antigen"]}, {"conceptId": "C120678", "definition": "A measurement of the influenza A and/or B antigen in a biological specimen.", "preferredTerm": "Influenza A/B Antigen Measurement", "submissionValue": "INFABAG", "synonyms": ["Influenza A/B Antigen"]}, {"conceptId": "C120679", "definition": "A measurement of the influenza B antigen in a biological specimen.", "preferredTerm": "Influenza B Antigen Measurement", "submissionValue": "INFBAG", "synonyms": ["Influenza B Antigen"]}, {"conceptId": "C112326", "definition": "A measurement of the JC virus antibody in a biological specimen.", "preferredTerm": "JC Virus Antibody Measurement", "submissionValue": "JCVAB", "synonyms": ["JC Polyomavirus Antibody", "JC Virus Antibody", "JCV Antibody", "John Cunningham Virus Antibody"]}, {"conceptId": "C163540", "definition": "null", "preferredTerm": "JC Virus DNA Measurement", "submissionValue": "JCVDNA"}, {"conceptId": "C147378", "definition": "A measurement of the Japanese encephalitis virus antibody in a biological specimen.", "preferredTerm": "Japanese Encephalitis Virus Antibody Measurement", "submissionValue": "JEVAB", "synonyms": ["Japanese Encephalitis Virus Antibody"]}, {"conceptId": "C92275", "definition": "A measurement of the Legionella pneumophila antigen in a biological specimen.", "preferredTerm": "Legionella pneumophila Antigen Measurement", "submissionValue": "LPNAG", "synonyms": ["Legionella pneumophila Antigen"]}, {"conceptId": "C92277", "definition": "A measurement of the Legionella pneumophila IgG and IgM in a biological specimen.", "preferredTerm": "Legionella pneumophila IgG IgM Antibody Measurement", "submissionValue": "LPNGMAB", "synonyms": ["Legionella pneumophila IgG IgM Antibody"]}, {"conceptId": "C92276", "definition": "A measurement of the Legionella pneumophila IgG antibody in a biological specimen.", "preferredTerm": "Legionella pneumophila IgG Antibody Measurement", "submissionValue": "LPNIGGAB", "synonyms": ["Legionella pneumophila IgG Antibody"]}, {"conceptId": "C92278", "definition": "A measurement of the Legionella pneumophila IgM antibody in a biological specimen.", "preferredTerm": "Legionella pneumophila IgM Antibody Measurement", "submissionValue": "LPNIGMAB", "synonyms": ["Legionella pneumophila IgM Antibody"]}, {"conceptId": "C154826", "definition": "A measurement of the Legionella pneumophila serogroup 1 antigen in a biological specimen.", "preferredTerm": "Legionella pneumophila Serogroup 1 Antigen Measurement", "submissionValue": "LPNS1AG", "synonyms": ["Legionella pneumophila Serogroup 1 Antigen", "Legionella pneumophila Sg 1 Antigen"]}, {"conceptId": "C132416", "definition": "The identification of the type of a microbial organism in a biological specimen.", "preferredTerm": "Microoganism Identification", "submissionValue": "MCORGIDN", "synonyms": ["Microbial Organism Identification"]}, {"conceptId": "C117843", "definition": "Presence of microfilaria stage of filarial nematodes in smears prepared from whole blood or other body fluids.", "preferredTerm": "Microfilaria Measurement", "submissionValue": "MFILARIA", "synonyms": ["Microfilaria"]}, {"conceptId": "C122136", "definition": "A measurement of the mumps virus IgG antibody in a biological specimen.", "preferredTerm": "Mumps Virus IgG Antibody Measurement", "submissionValue": "MMPIGGAB", "synonyms": ["Mumps Virus IgG Antibody"]}, {"conceptId": "C163541", "definition": "null", "preferredTerm": "Mumps Virus IgM Antibody Measurement", "submissionValue": "MMPIGMAB"}, {"conceptId": "C156543", "definition": "A measurement of the Mycoplasma pneumoniae in a biological specimen.", "preferredTerm": "Mycoplasma pneumoniae Measurement", "submissionValue": "MPN", "synonyms": ["Mycoplasma pneumoniae"]}, {"conceptId": "C163542", "definition": "null", "preferredTerm": "Mycoplasma pneumoniae IgA Antibody Measurement", "submissionValue": "MPNIGAAB"}, {"conceptId": "C163543", "definition": "null", "preferredTerm": "Mycoplasma pneumoniae IgM Antibody Measurement", "submissionValue": "MPNIGMAB"}, {"conceptId": "C139110", "definition": "A measurement of the methicillin-resistant strain of Staphylococcus aureus in a biological specimen.", "preferredTerm": "Methicillin-resistant Staphylococcus aureus Measurement", "submissionValue": "MRSA", "synonyms": ["S. aureus, Methicillin-Resistant", "Staphylococcus aureus, Methicillin-Resistant"]}, {"conceptId": "C139111", "definition": "A measurement of the methicillin-susceptible strain of Staphylococcus aureus in a biological specimen.", "preferredTerm": "Methicillin-susceptible Staphylococcus aureus Measurement", "submissionValue": "MSSA", "synonyms": ["S. aureus, Methicillin-Susceptible", "Staphylococcus aureus, Methicillin-Susceptible"]}, {"conceptId": "C128982", "definition": "A measurement of the organisms that are assigned to the Mycobacterium tuberculosis species in a biological specimen.", "preferredTerm": "Mycobacterium Tuberculosis Measurement", "submissionValue": "MTB", "synonyms": ["Mycobacterium tuberculosis"]}, {"conceptId": "C128983", "definition": "A measurement of the organisms assignable to the Mycobacterium tuberculosis complex in a biological specimen.", "preferredTerm": "Mycobacterium tuberculosis Complex Measurement", "submissionValue": "MTBCMPLX", "synonyms": ["Mycobacterium tuberculosis Complex"]}, {"conceptId": "C124346", "definition": "A measurement of the Mycobacterium tuberculosis IgA antibodies in a biological specimen.", "preferredTerm": "Mycobacterium tuberculosis IgA Antibody Measurement", "submissionValue": "MTBIGAAB", "synonyms": ["Mycobacterium tuberculosis IgA Antibody"]}, {"conceptId": "C124347", "definition": "A measurement of the Mycobacterium tuberculosis IgE antibodies in a biological specimen.", "preferredTerm": "Mycobacterium tuberculosis IgE Antibody Measurement", "submissionValue": "MTBIGEAB", "synonyms": ["Mycobacterium tuberculosis IgE Antibody"]}, {"conceptId": "C124348", "definition": "A measurement of the Mycobacterium tuberculosis IgG antibodies in a biological specimen.", "preferredTerm": "Mycobacterium tuberculosis IgG Antibody Measurement", "submissionValue": "MTBIGGAB", "synonyms": ["Mycobacterium tuberculosis IgG Antibody"]}, {"conceptId": "C92241", "definition": "A measurement of the amount of interferon gamma that is released when Mycobacterium tuberculosis antigen is incubated with a biological specimen, usually blood. Increased amounts of interferon gamma suggests a prior or existing M. tuberculosis infection.", "preferredTerm": "Mycobacterium tuberculosis Interferon Gamma Response", "submissionValue": "MYTBGIR", "synonyms": ["M. tuberculosis IFN Gamma Response", "Mycobacterium tuberculosis IFN Gamma Response"]}, {"conceptId": "C92279", "definition": "A measurement of the Mycobacterium tuberculosis nucleic acid in a biological specimen.", "preferredTerm": "Mycobacterium tuberculosis Nucleic Acid Measurement", "submissionValue": "MYTBNUAC", "synonyms": ["Mycobacterium tuberculosis Nucleic Acid"]}, {"conceptId": "C92298", "definition": "A measurement of the Neisseria gonorrhoeae in a biological specimen.", "preferredTerm": "Neisseria gonorrhoeae Measurement", "submissionValue": "NGO", "synonyms": ["Neisseria gonorrhoeae"]}, {"conceptId": "C161399", "definition": "A measurement of the beta-lactamase negative strain of Neisseria gonorrhoeae in a biological specimen.", "preferredTerm": "Neisseria gonorrhoeae, Beta-lactamase Negative Measurement", "submissionValue": "NGOBLN", "synonyms": ["N. gonorrhoeae, Beta-lactamase Negative"]}, {"conceptId": "C161398", "definition": "A measurement of the beta-lactamase positive strain of Neisseria gonorrhoeae in a biological specimen.", "preferredTerm": "Neisseria gonorrhoeae, Beta-lactamase Positive Measurement", "submissionValue": "NGOBLP", "synonyms": ["N. gonorrhoeae, Beta-lactamase Positive"]}, {"conceptId": "C147459", "definition": "A measurement of the organisms that are assigned to the Mycobacterium genus but are not tuberculosis or leprosy-causing in a biological specimen.", "preferredTerm": "Nontuberculous Mycobacteria Measurement", "submissionValue": "NTBMYCO", "synonyms": ["NTM", "Non-tuberculous mycobacteria", "Nontuberculous Mycobacteria"]}, {"conceptId": "C100452", "definition": "A measurement of the parasites and ova in a biological specimen.", "preferredTerm": "Ova and Parasite Measurement", "submissionValue": "OVAPARS", "synonyms": ["Ova and Parasite"]}, {"conceptId": "C139108", "definition": "A measurement of the mucoid strain of Pseudomonas aeruginosa in a biological specimen.", "preferredTerm": "Mucoid Pseudomonas aeruginosa Measurement", "submissionValue": "PAERGMUC", "synonyms": ["P. aeruginosa, Mucoid", "Pseudomonas aeruginosa, Mucoid"]}, {"conceptId": "C139107", "definition": "A measurement of the non-mucoid strain of Pseudomonas aeruginosa in a biological specimen.", "preferredTerm": "Non-Mucoid Pseudomonas aeruginosa Measurement", "submissionValue": "PAERGNMC", "synonyms": ["P. aeruginosa, Non-Mucoid", "Pseudomonas aeruginosa, Non-Mucoid"]}, {"conceptId": "C139109", "definition": "A measurement of the small-colony variant strain of Pseudomonas aeruginosa in a biological specimen.", "preferredTerm": "Small-Colony Variant Pseudomonas aeruginosa Measurement", "submissionValue": "PAERGSCV", "synonyms": ["P. aeruginosa, Small-colony Variant", "Pseudomonas aeruginosa, SCV", "Pseudomonas aeruginosa, Small-colony Variant"]}, {"conceptId": "C96617", "definition": "A measurement of the Parvovirus B19 IgG antibody in a biological specimen.", "preferredTerm": "Parvovirus B19 IgG Antibody Measurement", "submissionValue": "PB19GGAB", "synonyms": ["Parvovirus B19 IgG Antibody"]}, {"conceptId": "C96618", "definition": "A measurement of the Parvovirus B19 IgM antibody in a biological specimen.", "preferredTerm": "Parvovirus B19 IgM Antibody Measurement", "submissionValue": "PB19GMAB", "synonyms": ["Parvovirus B19 IgM Antibody"]}, {"conceptId": "C132417", "definition": "A measurement of the Plasmodium knowlesi in an asexual replication stage in a biological specimen.", "preferredTerm": "Asexual Plasmodium knowlesi Measurement", "submissionValue": "PKNOWLA", "synonyms": ["Plasmodium knowlesi, Asexual"]}, {"conceptId": "C132418", "definition": "A measurement of the Plasmodium knowlesi in a sexual replication stage in a biological specimen.", "preferredTerm": "Sexual Plasmodium knowlesi Measurement", "submissionValue": "PKNOWLS", "synonyms": ["Plasmodium knowlesi, Sexual"]}, {"conceptId": "C100453", "definition": "Examination of a biological specimen to detect the presence of any protozoan belonging to the Plasmodium genus.", "preferredTerm": "Plasmodium Measurement", "submissionValue": "PLSMDM", "synonyms": ["Malaria", "Plasmodium"]}, {"conceptId": "C117849", "definition": "A measurement of protozoa in a biological specimen.", "preferredTerm": "Protozoa Measurement", "submissionValue": "PROTOZOA", "synonyms": ["Protozoa"]}, {"conceptId": "C154815", "definition": "A measurement of the Rubeola virus antigen in a biological specimen.", "preferredTerm": "Rubeola Antigen Measurement", "submissionValue": "RBOAG", "synonyms": ["Measles Virus Antigen"]}, {"conceptId": "C112412", "definition": "A measurement of the Measles (Rubeola) virus IgG antibody in a biological specimen.", "preferredTerm": "Rubeola IgG Antibody Measurement", "submissionValue": "RBOIGGAB", "synonyms": ["Measles IgG Antibody", "Rubeola IgG Antibody"]}, {"conceptId": "C112413", "definition": "A measurement of the Measles (Rubeola) virus IgM antibody in a biological specimen.", "preferredTerm": "Rubeola IgM Antibody Measurement", "submissionValue": "RBOIGMAB", "synonyms": ["Measles IgM Antibody", "Rubeola IgM Antibody"]}, {"conceptId": "C74716", "definition": "A measurement of the non-specific Treponemal antibodies produced in response to cellular damage caused by Treponema pallidum (syphilis) in a biological specimen.", "preferredTerm": "Rapid Plasma Reagin Measurement", "submissionValue": "REAAB", "synonyms": ["RPR", "Rapid Plasma Reagin", "Reagin Antibody", "VDRL", "Venereal Disease Research Laboratory Test"]}, {"conceptId": "C154827", "definition": "A measurement of the antigen from any member of the genus Rotavirus in a biological specimen.", "preferredTerm": "Rotavirus Antigen Measurement", "submissionValue": "ROTAG", "synonyms": ["Rotavirus Antigen"]}, {"conceptId": "C154823", "definition": "A measurement of the respiratory syncytial virus antigen in a biological specimen.", "preferredTerm": "Respiratory Syncytial Virus Antigen Measurement", "submissionValue": "RSVAG", "synonyms": ["RSV Antigen", "Respiratory Syncytial Virus Antigen"]}, {"conceptId": "C103440", "definition": "A measurement of the Rubella IgG antibody in a biological specimen.", "preferredTerm": "Rubella IgG Antibody Measurement", "submissionValue": "RUBIGGAB", "synonyms": ["Rubella IgG Antibody"]}, {"conceptId": "C163544", "definition": "null", "preferredTerm": "Rubella IgM Antibody Measurement", "submissionValue": "RUBIGMAB"}, {"conceptId": "C154824", "definition": "A measurement of the Streptococcus agalactiae antigen in a biological specimen.", "preferredTerm": "Streptococcus agalactiae Antigen Measurement", "submissionValue": "SAGAG", "synonyms": ["Streptococcus Group B Antigen", "Streptococcus agalactiae Antigen"]}, {"conceptId": "C147460", "definition": "A measurement of the Staphylococcus aureus in a biological specimen.", "preferredTerm": "Staphylococcus aureus Measurement", "submissionValue": "SAUREUS", "synonyms": ["S. aureus", "Staphylococcus aureus"]}, {"conceptId": "C142232", "definition": "A measurement of the Streptococcus pneumoniae IgG antibody in a biological specimen.", "preferredTerm": "Streptococcus pneumoniae IgG Antibody Measurement", "submissionValue": "SPNAB", "synonyms": ["Streptococcus pneumoniae IgG Antibody"]}, {"conceptId": "C122152", "definition": "A measurement of the Streptococcus pneumoniae antigen in a biological specimen.", "preferredTerm": "Streptococcus pneumoniae Antigen Measurement", "submissionValue": "SPNAG", "synonyms": ["Streptococcus pneumoniae Antigen"]}, {"conceptId": "C154814", "definition": "A measurement of the Streptococcus pyogenes antigen in a biological specimen.", "preferredTerm": "Streptococcus pyogenes Antigen Measurement", "submissionValue": "SPYAG", "synonyms": ["Streptococcus pyogenes Antigen"]}, {"conceptId": "C139112", "definition": "A measurement of the organisms that are assigned to the Stenotrophomonas maltophilia species in a biological specimen.", "preferredTerm": "Stenotrophomonas maltophilia Measurement", "submissionValue": "STENMALT", "synonyms": ["Stenotrophomonas maltophilia"]}, {"conceptId": "C117858", "definition": "A measurement of strongyloides IgG antibody in a biological specimen.", "preferredTerm": "Strongyloides IgG Antibody Measurement", "submissionValue": "STRIGGAB", "synonyms": ["Strongyloides IgG Antibody"]}, {"conceptId": "C92282", "definition": "A measurement of Streptolysin O Antibody in a biological specimen.", "preferredTerm": "Streptolysin O Antibody Measurement", "submissionValue": "STRPLOAB", "synonyms": ["Antistreptolysin O", "Streptolysin O Antibody"]}, {"conceptId": "C139089", "definition": "A measurement of the Toxoplasma gondii IgG antibody in a biological specimen.", "preferredTerm": "Toxoplasma gondii IgG Antibody Measurement", "submissionValue": "TGNIGGAB", "synonyms": ["Toxoplasma gondii IgG Antibody"]}, {"conceptId": "C139090", "definition": "A measurement of the Toxoplasma gondii IgM antibody in a biological specimen.", "preferredTerm": "Toxoplasma gondii IgM Antibody Measurement", "submissionValue": "TGNIGMAB", "synonyms": ["Toxoplasma gondii IgM Antibody"]}, {"conceptId": "C150865", "definition": "A measurement of the toxin B-producing strain of Clostridium difficile in a biological specimen.", "preferredTerm": "Toxin B-Producing Clostridium difficile Measurement", "submissionValue": "TOXBPCDF", "synonyms": ["Toxin B-Producing Clostridium difficile"]}, {"conceptId": "C150862", "definition": "A measurement of the toxigenic strain of Clostridium difficile in a biological specimen.", "preferredTerm": "Toxigenic Clostridium difficile Measurement", "submissionValue": "TOXCDF", "synonyms": ["Toxigenic Clostridium difficile"]}, {"conceptId": "C132388", "definition": "A measurement of the total Treponema pallidum antibody in a biological specimen.", "preferredTerm": "Treponema pallidum Antibody Measurement", "submissionValue": "TPLAB", "synonyms": ["Treponema pallidum Antibody"]}, {"conceptId": "C92238", "definition": "Examination of a biological specimen to detect the presence of any protozoan belonging to the Trichomonas genus.", "preferredTerm": "Trichomonas Screening", "submissionValue": "TRICH", "synonyms": ["Trichomonas"]}, {"conceptId": "C161403", "definition": "A measurement of the Trichomonas vaginalis in a biological specimen.", "preferredTerm": "Trichomonas vaginalis Measurement", "submissionValue": "TVA", "synonyms": ["Trichomonas vaginalis"]}, {"conceptId": "C154825", "definition": "A measurement of the microbial urease enzyme in a biological specimen.", "preferredTerm": "Urease Measurement", "submissionValue": "UREASE", "synonyms": ["Urease"]}, {"conceptId": "C117867", "definition": "A measurement of the total varicella zoster virus antibody in a biological specimen.", "preferredTerm": "Varicella Zoster Virus Antibody Measurement", "submissionValue": "VZVAB", "synonyms": ["Varicella Zoster Virus Antibody"]}, {"conceptId": "C98795", "definition": "A measurement of the Varicella Zoster virus IgA antibodies in a biological specimen.", "preferredTerm": "Varicella Zoster Virus IgA Antibody Measurement", "submissionValue": "VZVIGAAB", "synonyms": ["Varicella Zoster Virus IgA Antibody"]}, {"conceptId": "C98796", "definition": "A measurement of the Varicella Zoster virus IgG antibodies in a biological specimen.", "preferredTerm": "Varicella Zoster Virus IgG Antibody Measurement", "submissionValue": "VZVIGGAB", "synonyms": ["Varicella Zoster Virus IgG Antibody"]}, {"conceptId": "C98797", "definition": "A measurement of the Varicella Zoster virus IgM antibodies in a biological specimen.", "preferredTerm": "Varicella Zoster Virus IgM Antibody Measurement", "submissionValue": "VZVIGMAB", "synonyms": ["Varicella Zoster Virus IgM Antibody"]}, {"conceptId": "C147448", "definition": "A measurement of the west Nile virus antibody in a biological specimen.", "preferredTerm": "West Nile Virus Antibody Measurement", "submissionValue": "WNVAB", "synonyms": ["West Nile Virus Antibody"]}, {"conceptId": "C74664", "definition": "A measurement of the yeast cells present in a biological specimen.", "preferredTerm": "Yeast Cell Measurement", "submissionValue": "YEAST", "synonyms": ["Yeast Cells"]}, {"conceptId": "C106504", "definition": "A measurement of the budding yeast present in a biological specimen.", "preferredTerm": "Budding Yeast Measurement", "submissionValue": "YEASTBUD", "synonyms": ["Budding Yeast", "Yeast Budding"]}, {"conceptId": "C92239", "definition": "A measurement of the yeast hyphae present in a biological specimen.", "preferredTerm": "Yeast Hyphae Screening", "submissionValue": "YEASTHYP", "synonyms": ["Yeast Hyphae"]}, {"conceptId": "C147450", "definition": "A measurement of the yellow fever virus antibody in a biological specimen.", "preferredTerm": "Yellow Fever Virus Antibody Measurement", "submissionValue": "YFVAB", "synonyms": ["Yellow Fever Virus Antibody"]}, {"conceptId": "C132420", "definition": "A measurement of the Zaire ebolavirus present in a biological specimen.", "preferredTerm": "Zaire Ebolavirus Measurement", "submissionValue": "ZEBOV", "synonyms": ["Zaire Ebolavirus"]}, {"conceptId": "C147451", "definition": "A measurement of the Zika virus antibody in a biological specimen.", "preferredTerm": "Zika Virus Antibody Measurement", "submissionValue": "ZKVAB", "synonyms": ["Zika Virus Antibody"]}]}