{"_links": {"parentPackage": {"href": "/mdr/ct/packages/sdtmct-2019-09-27", "title": "SDTM Controlled Terminology Package 39 Effective 2019-09-27", "type": "Terminology"}, "priorVersion": {"href": "/mdr/ct/packages/sdtmct-2019-06-28/codelists/C120526", "title": "CDISC SDTM Immunogenicity Specimen Assessments Test Name Terminology", "type": "Code List"}, "rootItem": {"href": "/mdr/root/ct/sdtmct/codelists/C120526", "title": "Version-agnostic anchor resource for codelist C120526", "type": "Root Value Domain"}, "self": {"href": "/mdr/ct/packages/sdtmct-2019-09-27/codelists/C120526", "title": "CDISC SDTM Immunogenicity Specimen Assessments Test Name Terminology", "type": "Code List"}}, "conceptId": "C120526", "definition": "Terminology relevant to the immunogenicity specimen test names of the CDISC Study Data Tabulation Model.", "extensible": "true", "name": "Immunogenicity Specimen Assessments Test Name", "preferredTerm": "CDISC SDTM Immunogenicity Specimen Assessments Test Name Terminology", "submissionValue": "ISTEST", "synonyms": ["Immunogenicity Specimen Assessments Test Name"], "terms": [{"conceptId": "C147272", "definition": "A measurement of the binding antidrug antibody in a biological specimen. A binding antidrug antibody is an antibody that binds to a test article, and/or portion(s) of the test article.", "preferredTerm": "Binding Antidrug Antibody Measurement", "submissionValue": "Binding Antidrug Antibody", "synonyms": ["Binding Antidrug Antibody"]}, {"conceptId": "C147275", "definition": "A measurement of the cross-reactive binding antidrug antibody in a biological specimen. A cross-reactive binding antidrug antibody is a type of ADA that binds to the endogenous molecule that is structurally similar to an analogue test article.", "preferredTerm": "Cross-Reactive Binding Antidrug Antibody Measurement", "submissionValue": "Cross-Reactive Binding Antidrug Antibody", "synonyms": ["Cross-Reactive Binding Antidrug Antibody"]}, {"conceptId": "C132360", "definition": "A measurement of the Ebola virus specific IgG antibody secreting cells in a biological specimen.", "preferredTerm": "Ebola Virus Specific IgG Antibody Secreting Cell Count", "submissionValue": "EBOV Specific IgG AB Secreting Cells", "synonyms": ["EBOV Specific IgG AB Secreting Cells"]}, {"conceptId": "C132361", "definition": "A measurement of the Ebola virus specific IgM antibody secreting cells in a biological specimen.", "preferredTerm": "Ebola Virus Specific IgM Antibody Secreting Cell Count", "submissionValue": "EBOV Specific IgM AB Secreting Cells", "synonyms": ["EBOV Specific IgM AB Secreting Cells"]}, {"conceptId": "C120622", "definition": "A measurement of the H1 specific IgG antibody secreting cells in a biological specimen.", "preferredTerm": "Influenza Hemagglutinin 1 Specific IgG Antibody Secreting Cell Count", "submissionValue": "H1 Specific IgG Antibody Secreting Cells", "synonyms": ["H1 Specific IgG ASCs", "H1 Specific IgG Antibody Secreting Cells"]}, {"conceptId": "C120623", "definition": "A measurement of the H3 specific IgG antibody secreting cells in a biological specimen.", "preferredTerm": "Influenza Hemagglutinin 3 Specific IgG Antibody Secreting Cell Count", "submissionValue": "H3 Specific IgG Antibody Secreting Cells", "synonyms": ["H3 Specific IgG ASCs", "H3 Specific IgG Antibody Secreting Cells"]}, {"conceptId": "C158217", "definition": "A measurement of the HIV-1 seroreactivity in a biological specimen.", "preferredTerm": "HIV-1 Seroreactivity Measurement", "submissionValue": "HIV-1 Seroreactivity", "synonyms": ["HIV-1 Seroreactivity"]}, {"conceptId": "C158216", "definition": "A measurement of the HIV-2 seroreactivity in a biological specimen.", "preferredTerm": "HIV-2 Seroreactivity Measurement", "submissionValue": "HIV-2 Seroreactivity", "synonyms": ["HIV-2 Seroreactivity"]}, {"conceptId": "C132362", "definition": "A measurement of the total IgM antibody secreting cells in a biological specimen.", "preferredTerm": "IgM Antibody Secreting Cell Count", "submissionValue": "IgM Antibody Secreting Cells", "synonyms": ["IgM Antibody Secreting Cells"]}, {"conceptId": "C147274", "definition": "A measurement of the neutralizing cross-reactive binding antidrug antibody in a biological specimen. A neutralizing cross-reactive binding antidrug antibody is a type of ADA that binds to an endogenous molecule that is structurally similar to an analogue test article and diminishes or negates its function.", "preferredTerm": "Neutralizing Cross-Reacting Binding Antidrug Antibody Measurement", "submissionValue": "Neutraliz Cross-React Bind Antidrug AB", "synonyms": ["Neutraliz Cross-React Bind Antidrug AB", "Neutralizing Cross-Reactive Binding Antidrug Antibody"]}, {"conceptId": "C147273", "definition": "A measurement of the neutralizing binding antidrug antibody in a biological specimen. A neutralizing binding antidrug antibody is a type of ADA that binds to the functional portion of a test article leading to diminished or negated pharmacological activity.", "preferredTerm": "Neutralizing Binding Antidrug Antibody Measurement", "submissionValue": "Neutralizing Binding Antidrug Antibody", "synonyms": ["Neutralizing Binding Antidrug Antibody"]}, {"conceptId": "C161337", "definition": "A relative measurement (ratio or percentage) of T-lymphocyte proliferation due to stimulation by an antigen of interest to a non-stimulated T-lymphocyte proliferation control.", "preferredTerm": "T-Lymphocyte Proliferation Index", "submissionValue": "T-Lymphocyte Proliferation Index", "synonyms": ["T-Lymphocyte Proliferation Index"]}, {"conceptId": "C120624", "definition": "A measurement of the total IgG antibody secreting cells in a biological specimen.", "preferredTerm": "Total IgG Antibody Secreting Cell Count", "submissionValue": "Total IgG Antibody Secreting Cells", "synonyms": ["Total IgG ASCs", "Total IgG Antibody Secreting Cells"]}]}