{"_links": {"parentPackage": {"href": "/mdr/ct/packages/sdtmct-2019-09-27", "title": "SDTM Controlled Terminology Package 39 Effective 2019-09-27", "type": "Terminology"}, "priorVersion": {"href": "/mdr/ct/packages/sdtmct-2019-06-28/codelists/C124667", "title": "CDISC Clinical Classification ASSIGN Score Test Name Terminology", "type": "Code List"}, "rootItem": {"href": "/mdr/root/ct/sdtmct/codelists/C124667", "title": "Version-agnostic anchor resource for codelist C124667", "type": "Root Value Domain"}, "self": {"href": "/mdr/ct/packages/sdtmct-2019-09-27/codelists/C124667", "title": "CDISC Clinical Classification ASSIGN Score Test Name Terminology", "type": "Code List"}}, "conceptId": "C124667", "definition": "ASSIGN Cardiovascular Disease 10-Year Risk Score test name.", "extensible": "false", "name": "ASSIGN Cardiovascular Disease 10-Year Risk Score Clinical Classification Test Name", "preferredTerm": "CDISC Clinical Classification ASSIGN Score Test Name Terminology", "submissionValue": "ASSG01TN", "synonyms": ["ASSIGN Cardiovascular Disease 10-Year Risk Score Clinical Classification Test Name"], "terms": [{"conceptId": "C124721", "definition": "ASSIGN Cardiovascular Disease 10-Year Risk Score - ASSIGN score.", "preferredTerm": "ASSIGN Score - Risk Score", "submissionValue": "ASSG01-ASSIGN Score", "synonyms": ["ASSG01-ASSIGN Score"]}]}