{"_links": {"parentPackage": {"href": "/mdr/ct/packages/sdtmct-2019-09-27", "title": "SDTM Controlled Terminology Package 39 Effective 2019-09-27", "type": "Terminology"}, "priorVersion": {"href": "/mdr/ct/packages/sdtmct-2019-06-28/codelists/C127259", "title": "CDISC SDTM Observational Study Model Terminology", "type": "Code List"}, "rootItem": {"href": "/mdr/root/ct/sdtmct/codelists/C127259", "title": "Version-agnostic anchor resource for codelist C127259", "type": "Root Value Domain"}, "self": {"href": "/mdr/ct/packages/sdtmct-2019-09-27/codelists/C127259", "title": "CDISC SDTM Observational Study Model Terminology", "type": "Code List"}}, "conceptId": "C127259", "definition": "The terminology relevant to the trial design for observational studies.", "extensible": "true", "name": "Observational Study Model", "preferredTerm": "CDISC SDTM Observational Study Model Terminology", "submissionValue": "OBSSMO", "synonyms": ["Observational Study Model"], "terms": [{"conceptId": "C15197", "definition": "A study that compares groups of people with generally similar characteristics, those with the condition under study (case) and those without the condition under study (control).", "preferredTerm": "Case-Control Study", "submissionValue": "CASE CONTROL"}, {"conceptId": "C127779", "definition": "A study in which the subject characteristics of the case, immediately prior to disease onset (sometimes called the hazard period), are compared to characteristics of same case at a prior time (i.e., control period). (ClinicalTrials.gov)", "preferredTerm": "Observational Case-Crossover Study", "submissionValue": "CASE CROSSOVER"}, {"conceptId": "C15362", "definition": "A study in which the subject with the condition under study (the case) is compared against a theoretical/historical model of distribution that serves as a control.", "preferredTerm": "Case Study", "submissionValue": "CASE ONLY"}, {"conceptId": "C15208", "definition": "A study in which subjects are grouped based on a predefined personal or administrative characteristic.", "preferredTerm": "Cohort Study", "submissionValue": "COHORT"}, {"conceptId": "C127780", "definition": "A study in which geographically distinct study populations are compared with respect to a particular outcome.", "preferredTerm": "Ecologic or Community Based Study", "submissionValue": "ECOLOGIC OR COMMUNITY"}, {"conceptId": "C15407", "definition": "A study in which related or non-related family members are compared with respect to a particular outcome.", "preferredTerm": "Family Study", "submissionValue": "FAMILY BASED"}]}