{"_links": {"parentPackage": {"href": "/mdr/ct/packages/sdtmct-2019-09-27", "title": "SDTM Controlled Terminology Package 39 Effective 2019-09-27", "type": "Terminology"}, "priorVersion": {"href": "/mdr/ct/packages/sdtmct-2019-06-28/codelists/C130279", "title": "CDISC Questionnaire WHODAS 2.0 12-item Version Self-administered Test Code Terminology", "type": "Code List"}, "rootItem": {"href": "/mdr/root/ct/sdtmct/codelists/C130279", "title": "Version-agnostic anchor resource for codelist C130279", "type": "Root Value Domain"}, "self": {"href": "/mdr/ct/packages/sdtmct-2019-09-27/codelists/C130279", "title": "CDISC Questionnaire WHODAS 2.0 12-item Version Self-administered Test Code Terminology", "type": "Code List"}}, "conceptId": "C130279", "definition": "World Health Organization Disability Assessment Schedule 2.0 - 12-Item Self test code.", "extensible": "false", "name": "World Health Organization Disability Assessment Schedule 2.0 - 12-Item Self Questionnaire Test Code", "preferredTerm": "CDISC Questionnaire WHODAS 2.0 12-item Version Self-administered Test Code Terminology", "submissionValue": "WD3TC", "synonyms": ["World Health Organization Disability Assessment Schedule 2.0 - 12-Item Self Questionnaire Test Code"], "terms": [{"conceptId": "C130947", "definition": "World Health Organization Disability Assessment Schedule 2.0 - 12-Item Self - Overall, in the past 30 days, how many days were these difficulties present?", "preferredTerm": "WHODAS 2.0 12-item Version Self-administered - How Many Days Difficulties Present", "submissionValue": "WD3H1", "synonyms": ["WD3-How Many Days Difficulties Present"]}, {"conceptId": "C130948", "definition": "World Health Organization Disability Assessment Schedule 2.0 - 12-Item Self - In the past 30 days, for how many days were you totally unable to carry out your usual activities or work because of any health condition?", "preferredTerm": "WHODAS 2.0 12-item Version Self-administered - Days Unable to Carry Out Activities", "submissionValue": "WD3H2", "synonyms": ["WD3-Days Unable to Carry Out Activities"]}, {"conceptId": "C130949", "definition": "World Health Organization Disability Assessment Schedule 2.0 - 12-Item Self - In the past 30 days, not counting the days that you were totally unable, for how many days did you cut back or reduce your usual activities or work because of any health condition?", "preferredTerm": "WHODAS 2.0 12-item Version Self-administered - How Many Days Reduce Activities", "submissionValue": "WD3H3", "synonyms": ["WD3-How Many Days Reduce Activities"]}, {"conceptId": "C130935", "definition": "World Health Organization Disability Assessment Schedule 2.0 - 12-Item Self - In the past 30 days, how much difficulty did you have in: Standing for long periods such as 30 minutes?", "preferredTerm": "WHODAS 2.0 12-item Version Self-administered - Standing for Long Periods", "submissionValue": "WD3S1", "synonyms": ["WD3-Standing for Long Periods"]}, {"conceptId": "C130944", "definition": "World Health Organization Disability Assessment Schedule 2.0 - 12-Item Self - In the past 30 days, how much difficulty did you have in: Dealing with people you do not know?", "preferredTerm": "WHODAS 2.0 12-item Version Self-administered - Dealing With People You Do Not Know", "submissionValue": "WD3S10", "synonyms": ["WD3-Dealing With People You Do Not Know"]}, {"conceptId": "C130945", "definition": "World Health Organization Disability Assessment Schedule 2.0 - 12-Item Self - In the past 30 days, how much difficulty did you have in: Maintaining a friendship?", "preferredTerm": "WHODAS 2.0 12-item Version Self-administered - Maintaining a Friendship", "submissionValue": "WD3S11", "synonyms": ["WD3-Maintaining a Friendship"]}, {"conceptId": "C130946", "definition": "World Health Organization Disability Assessment Schedule 2.0 - 12-Item Self - In the past 30 days, how much difficulty did you have in: Your day-to-day work?", "preferredTerm": "WHODAS 2.0 12-item Version Self-administered - Your Day-to-Day Work or School", "submissionValue": "WD3S12", "synonyms": ["WD3-Your Day-to-Day Work/School"]}, {"conceptId": "C130936", "definition": "World Health Organization Disability Assessment Schedule 2.0 - 12-Item Self - In the past 30 days, how much difficulty did you have in: Taking care of your household responsibilities?", "preferredTerm": "WHODAS 2.0 12-item Version Self-administered - Care of Household Responsibilities", "submissionValue": "WD3S2", "synonyms": ["WD3-Care of Household Responsibilities"]}, {"conceptId": "C130937", "definition": "World Health Organization Disability Assessment Schedule 2.0 - 12-Item Self - In the past 30 days, how much difficulty did you have in: Learning a new task, for example, learning how to get to a new place?", "preferredTerm": "WHODAS 2.0 12-item Version Self-administered - Learning a New Task", "submissionValue": "WD3S3", "synonyms": ["WD3-Learning a New Task"]}, {"conceptId": "C130938", "definition": "World Health Organization Disability Assessment Schedule 2.0 - 12-Item Self - In the past 30 days, how much difficulty did you have in: How much of a problem did you have joining in community activities (for example, festivities, religious or other activities) in the same way as anyone else can?", "preferredTerm": "WHODAS 2.0 12-item Version Self-administered - Problem Joining Community Activities", "submissionValue": "WD3S4", "synonyms": ["WD3-Problem Joining Community Activities"]}, {"conceptId": "C130939", "definition": "World Health Organization Disability Assessment Schedule 2.0 - 12-Item Self - In the past 30 days, how much difficulty did you have in: How much have you been emotionally affected by your health problems?", "preferredTerm": "WHODAS 2.0 12-item Version Self-administered - Emotionally Affected by Health", "submissionValue": "WD3S5", "synonyms": ["WD3-Emotionally Affected by Health"]}, {"conceptId": "C130940", "definition": "World Health Organization Disability Assessment Schedule 2.0 - 12-Item Self - In the past 30 days, how much difficulty did you have in: Concentrating on doing something for ten minutes?", "preferredTerm": "WHODAS 2.0 12-item Version Self-administered - Concentrating for Ten Minutes", "submissionValue": "WD3S6", "synonyms": ["WD3-Concentrating for Ten Minutes"]}, {"conceptId": "C130941", "definition": "World Health Organization Disability Assessment Schedule 2.0 - 12-Item Self - In the past 30 days, how much difficulty did you have in: Walking a long distance such as a kilometre [or equivalent]?", "preferredTerm": "WHODAS 2.0 12-item Version Self-administered - Walking a Long Distance", "submissionValue": "WD3S7", "synonyms": ["WD3-Walking a Long Distance"]}, {"conceptId": "C130942", "definition": "World Health Organization Disability Assessment Schedule 2.0 - 12-Item Self - In the past 30 days, how much difficulty did you have in: Washing your whole body?", "preferredTerm": "WHODAS 2.0 12-item Version Self-administered - Washing Your Whole Body", "submissionValue": "WD3S8", "synonyms": ["WD3-Washing Your Whole Body"]}, {"conceptId": "C130943", "definition": "World Health Organization Disability Assessment Schedule 2.0 - 12-Item Self - In the past 30 days, how much difficulty did you have in: Getting dressed?", "preferredTerm": "WHODAS 2.0 12-item Version Self-administered - Getting Dressed", "submissionValue": "WD3S9", "synonyms": ["WD3-Getting Dressed"]}]}