{"_links": {"parentPackage": {"href": "/mdr/ct/packages/sdtmct-2019-09-27", "title": "SDTM Controlled Terminology Package 39 Effective 2019-09-27", "type": "Terminology"}, "priorVersion": {"href": "/mdr/ct/packages/sdtmct-2019-06-28/codelists/C132313", "title": "CDISC SDTM Asthma Findings About Test Code Terminology", "type": "Code List"}, "rootItem": {"href": "/mdr/root/ct/sdtmct/codelists/C132313", "title": "Version-agnostic anchor resource for codelist C132313", "type": "Root Value Domain"}, "self": {"href": "/mdr/ct/packages/sdtmct-2019-09-27/codelists/C132313", "title": "CDISC SDTM Asthma Findings About Test Code Terminology", "type": "Code List"}}, "conceptId": "C132313", "definition": "Terminology relevant to the test codes that describe findings about an asthma event or intervention.", "extensible": "true", "name": "Asthma Findings About Test Code", "preferredTerm": "CDISC SDTM Asthma Findings About Test Code Terminology", "submissionValue": "ASFATSCD", "synonyms": ["Asthma Findings About Test Code"], "terms": [{"conceptId": "C127786", "definition": "An indication as to whether something has happened, such as an event or incident.", "preferredTerm": "Occurrence Indicator", "submissionValue": "OCCUR", "synonyms": ["Occurrence Indicator"]}]}