{"_links": {"parentPackage": {"href": "/mdr/ct/packages/sdtmct-2019-09-27", "title": "SDTM Controlled Terminology Package 39 Effective 2019-09-27", "type": "Terminology"}, "priorVersion": {"href": "/mdr/ct/packages/sdtmct-2019-06-28/codelists/C138243", "title": "CDISC Questionnaire PedsQL Neuromuscular Module Acute Version 3.0 Young Child Report Test Code Terminology", "type": "Code List"}, "rootItem": {"href": "/mdr/root/ct/sdtmct/codelists/C138243", "title": "Version-agnostic anchor resource for codelist C138243", "type": "Root Value Domain"}, "self": {"href": "/mdr/ct/packages/sdtmct-2019-09-27/codelists/C138243", "title": "CDISC Questionnaire PedsQL Neuromuscular Module Acute Version 3.0 Young Child Report Test Code Terminology", "type": "Code List"}}, "conceptId": "C138243", "definition": "Pediatric Quality of Life Neuromuscular Module Acute Version 3 Young Child test code.", "extensible": "false", "name": "Pediatric Quality of Life Neuromuscular Module Acute Version 3 Young Child Questionnaire Test Code", "preferredTerm": "CDISC Questionnaire PedsQL Neuromuscular Module Acute Version 3.0 Young Child Report Test Code Terminology", "submissionValue": "PQL16TC", "synonyms": ["Pediatric Quality of Life Neuromuscular Module Acute Version 3 Young Child Questionnaire Test Code"], "terms": [{"conceptId": "C138665", "definition": "Pediatric Quality of Life Neuromuscular Module Acute Version 3 Young Child - Think about how you have been doing for the past 7 days. Please listen carefully to each sentence and tell me how much of a problem this is for you: It is hard to breathe.", "preferredTerm": "PedsQL Neuromuscular Module Acute Version 3.0 Young Child Report - Hard to Breathe", "submissionValue": "PQL1601", "synonyms": ["PQL16-Hard to Breathe"]}, {"conceptId": "C138666", "definition": "Pediatric Quality of Life Neuromuscular Module Acute Version 3 Young Child - Think about how you have been doing for the past 7 days. Please listen carefully to each sentence and tell me how much of a problem this is for you: I get sick easily.", "preferredTerm": "PedsQL Neuromuscular Module Acute Version 3.0 Young Child Report - Get Sick Easily", "submissionValue": "PQL1602", "synonyms": ["PQL16-Get Sick Easily"]}, {"conceptId": "C138667", "definition": "Pediatric Quality of Life Neuromuscular Module Acute Version 3 Young Child - Think about how you have been doing for the past 7 days. Please listen carefully to each sentence and tell me how much of a problem this is for you: I get sores and/or rashes.", "preferredTerm": "PedsQL Neuromuscular Module Acute Version 3.0 Young Child Report - Get Sores and/or Rashes", "submissionValue": "PQL1603", "synonyms": ["PQL16-Get Sores and/or Rashes"]}, {"conceptId": "C138668", "definition": "Pediatric Quality of Life Neuromuscular Module Acute Version 3 Young Child - Think about how you have been doing for the past 7 days. Please listen carefully to each sentence and tell me how much of a problem this is for you: My legs hurt.", "preferredTerm": "PedsQL Neuromuscular Module Acute Version 3.0 Young Child Report - Legs Hurt", "submissionValue": "PQL1604", "synonyms": ["PQL16-Legs Hurt"]}, {"conceptId": "C138669", "definition": "Pediatric Quality of Life Neuromuscular Module Acute Version 3 Young Child - Think about how you have been doing for the past 7 days. Please listen carefully to each sentence and tell me how much of a problem this is for you: I feel tired.", "preferredTerm": "PedsQL Neuromuscular Module Acute Version 3.0 Young Child Report - Feel Tired", "submissionValue": "PQL1605", "synonyms": ["PQL16-Feel Tired"]}, {"conceptId": "C138670", "definition": "Pediatric Quality of Life Neuromuscular Module Acute Version 3 Young Child - Think about how you have been doing for the past 7 days. Please listen carefully to each sentence and tell me how much of a problem this is for you: My back feels stiff.", "preferredTerm": "PedsQL Neuromuscular Module Acute Version 3.0 Young Child Report - Back Feels Stiff", "submissionValue": "PQL1606", "synonyms": ["PQL16-Back Feels Stiff"]}, {"conceptId": "C138671", "definition": "Pediatric Quality of Life Neuromuscular Module Acute Version 3 Young Child - Think about how you have been doing for the past 7 days. Please listen carefully to each sentence and tell me how much of a problem this is for you: I wake up tired.", "preferredTerm": "PedsQL Neuromuscular Module Acute Version 3.0 Young Child Report - Wake Up Tired", "submissionValue": "PQL1607", "synonyms": ["PQL16-Wake Up Tired"]}, {"conceptId": "C138672", "definition": "Pediatric Quality of Life Neuromuscular Module Acute Version 3 Young Child - Think about how you have been doing for the past 7 days. Please listen carefully to each sentence and tell me how much of a problem this is for you: My hands are weak.", "preferredTerm": "PedsQL Neuromuscular Module Acute Version 3.0 Young Child Report - Hands Are Weak", "submissionValue": "PQL1608", "synonyms": ["PQL16-Hands Are Weak"]}, {"conceptId": "C138673", "definition": "Pediatric Quality of Life Neuromuscular Module Acute Version 3 Young Child - Think about how you have been doing for the past 7 days. Please listen carefully to each sentence and tell me how much of a problem this is for you: It is hard to use the bathroom.", "preferredTerm": "PedsQL Neuromuscular Module Acute Version 3.0 Young Child Report - Hard to Use Bathroom", "submissionValue": "PQL1609", "synonyms": ["PQL16-Hard to Use Bathroom"]}, {"conceptId": "C138674", "definition": "Pediatric Quality of Life Neuromuscular Module Acute Version 3 Young Child - Think about how you have been doing for the past 7 days. Please listen carefully to each sentence and tell me how much of a problem this is for you: It is hard to gain or lose weight when I want to.", "preferredTerm": "PedsQL Neuromuscular Module Acute Version 3.0 Young Child Report - Hard to Gain or Lose Weight", "submissionValue": "PQL1610", "synonyms": ["PQL16-Hard to Gain/Lose Weight"]}, {"conceptId": "C138675", "definition": "Pediatric Quality of Life Neuromuscular Module Acute Version 3 Young Child - Think about how you have been doing for the past 7 days. Please listen carefully to each sentence and tell me how much of a problem this is for you: It is hard to use my hands.", "preferredTerm": "PedsQL Neuromuscular Module Acute Version 3.0 Young Child Report - Hard to Use Hands", "submissionValue": "PQL1611", "synonyms": ["PQL16-Hard to Use Hands"]}, {"conceptId": "C138676", "definition": "Pediatric Quality of Life Neuromuscular Module Acute Version 3 Young Child - Think about how you have been doing for the past 7 days. Please listen carefully to each sentence and tell me how much of a problem this is for you: It is hard to swallow food.", "preferredTerm": "PedsQL Neuromuscular Module Acute Version 3.0 Young Child Report - Hard to Swallow Food", "submissionValue": "PQL1612", "synonyms": ["PQL16-Hard to Swallow Food"]}, {"conceptId": "C138677", "definition": "Pediatric Quality of Life Neuromuscular Module Acute Version 3 Young Child - Think about how you have been doing for the past 7 days. Please listen carefully to each sentence and tell me how much of a problem this is for you: It takes me a long time to bathe or shower.", "preferredTerm": "PedsQL Neuromuscular Module Acute Version 3.0 Young Child Report - Long Time to Bathe or Shower", "submissionValue": "PQL1613", "synonyms": ["PQL16-Long Time to Bathe/Shower"]}, {"conceptId": "C138678", "definition": "Pediatric Quality of Life Neuromuscular Module Acute Version 3 Young Child - Think about how you have been doing for the past 7 days. Please listen carefully to each sentence and tell me how much of a problem this is for you: I get hurt accidentally.", "preferredTerm": "PedsQL Neuromuscular Module Acute Version 3.0 Young Child Report - Get Hurt Accidentally", "submissionValue": "PQL1614", "synonyms": ["PQL16-Get Hurt Accidentally"]}, {"conceptId": "C138679", "definition": "Pediatric Quality of Life Neuromuscular Module Acute Version 3 Young Child - Think about how you have been doing for the past 7 days. Please listen carefully to each sentence and tell me how much of a problem this is for you: I take a long time to eat.", "preferredTerm": "PedsQL Neuromuscular Module Acute Version 3.0 Young Child Report - Take Long Time to Eat", "submissionValue": "PQL1615", "synonyms": ["PQL16-Take Long Time to Eat"]}, {"conceptId": "C138680", "definition": "Pediatric Quality of Life Neuromuscular Module Acute Version 3 Young Child - Think about how you have been doing for the past 7 days. Please listen carefully to each sentence and tell me how much of a problem this is for you: It is hard to turn myself during the night.", "preferredTerm": "PedsQL Neuromuscular Module Acute Version 3.0 Young Child Report - Hard to Turn During Night", "submissionValue": "PQL1616", "synonyms": ["PQL16-Hard to Turn During Night"]}, {"conceptId": "C138681", "definition": "Pediatric Quality of Life Neuromuscular Module Acute Version 3 Young Child - Think about how you have been doing for the past 7 days. Please listen carefully to each sentence and tell me how much of a problem this is for you: It is hard for me to go places with my equipment.", "preferredTerm": "PedsQL Neuromuscular Module Acute Version 3.0 Young Child Report - Hard to Go Places With Equipment", "submissionValue": "PQL1617", "synonyms": ["PQL16-Hard to Go Places With Equipment"]}]}