{"_links": {"parentPackage": {"href": "/mdr/ct/packages/sdtmct-2019-09-27", "title": "SDTM Controlled Terminology Package 39 Effective 2019-09-27", "type": "Terminology"}, "priorVersion": {"href": "/mdr/ct/packages/sdtmct-2019-06-28/codelists/C138212", "title": "CDISC Clinical Classification HAS-BLED Test Name Terminology", "type": "Code List"}, "rootItem": {"href": "/mdr/root/ct/sdtmct/codelists/C138212", "title": "Version-agnostic anchor resource for codelist C138212", "type": "Root Value Domain"}, "self": {"href": "/mdr/ct/packages/sdtmct-2019-09-27/codelists/C138212", "title": "CDISC Clinical Classification HAS-BLED Test Name Terminology", "type": "Code List"}}, "conceptId": "C138212", "definition": "HAS-BLED Bleeding Risk Score test name.", "extensible": "false", "name": "HAS-BLED Bleeding Risk Score Clinical Classification Test Name", "preferredTerm": "CDISC Clinical Classification HAS-BLED Test Name Terminology", "submissionValue": "HSB01TN", "synonyms": ["HAS-BLED Bleeding Risk Score Clinical Classification Test Name"], "terms": [{"conceptId": "C138358", "definition": "HAS-BLED Bleeding Risk Score - Abnormal renal and liver function.", "preferredTerm": "HAS-BLED - Abnormal Renal and Liver Function", "submissionValue": "HSB01-Abnormal Renal and Liver Function", "synonyms": ["HSB01-Abnormal Renal and Liver Function"]}, {"conceptId": "C138360", "definition": "HAS-BLED Bleeding Risk Score - Bleeding.", "preferredTerm": "HAS-BLED - Bleeding", "submissionValue": "HSB01-Bleeding", "synonyms": ["HSB01-Bleeding"]}, {"conceptId": "C138363", "definition": "HAS-BLED Bleeding Risk Score - Drugs or alcohol.", "preferredTerm": "HAS-BLED - Drugs or Alcohol", "submissionValue": "HSB01-Drugs or Alcohol", "synonyms": ["HSB01-Drugs or Alcohol"]}, {"conceptId": "C138362", "definition": "HAS-BLED Bleeding Risk Score - Elderly.", "preferredTerm": "HAS-BLED - Elderly", "submissionValue": "HSB01-Elderly", "synonyms": ["HSB01-Elderly"]}, {"conceptId": "C138357", "definition": "HAS-BLED Bleeding Risk Score - Hypertension.", "preferredTerm": "HAS-BLED - Hypertension", "submissionValue": "HSB01-Hypertension", "synonyms": ["HSB01-Hypertension"]}, {"conceptId": "C138361", "definition": "HAS-BLED Bleeding Risk Score - Labile INRs.", "preferredTerm": "HAS-BLED - Labile INRs", "submissionValue": "HSB01-Labile INRs", "synonyms": ["HSB01-Labile INRs"]}, {"conceptId": "C138359", "definition": "HAS-BLED Bleeding Risk Score - Stroke.", "preferredTerm": "HAS-BLED - Stroke", "submissionValue": "HSB01-Stroke", "synonyms": ["HSB01-Stroke"]}]}