{"_links": {"parentPackage": {"href": "/mdr/ct/packages/sdtmct-2019-09-27", "title": "SDTM Controlled Terminology Package 39 Effective 2019-09-27", "type": "Terminology"}, "priorVersion": {"href": "/mdr/ct/packages/sdtmct-2019-06-28/codelists/C141663", "title": "CDISC Functional Test 4 Stair Ascend Test Code Terminology", "type": "Code List"}, "rootItem": {"href": "/mdr/root/ct/sdtmct/codelists/C141663", "title": "Version-agnostic anchor resource for codelist C141663", "type": "Root Value Domain"}, "self": {"href": "/mdr/ct/packages/sdtmct-2019-09-27/codelists/C141663", "title": "CDISC Functional Test 4 Stair Ascend Test Code Terminology", "type": "Code List"}}, "conceptId": "C141663", "definition": "4 Stair Ascend test code.", "extensible": "false", "name": "4 Stair Ascend Functional Test Test Code", "preferredTerm": "CDISC Functional Test 4 Stair Ascend Test Code Terminology", "submissionValue": "A4STR1TC", "synonyms": ["4 Stair Ascend Functional Test Test Code"], "terms": [{"conceptId": "C141706", "definition": "4 Stair Ascend - Time taken to ascend 4 stairs.", "preferredTerm": "4 Stair Ascend - Time to Ascend 4 Stairs", "submissionValue": "A4STR101", "synonyms": ["A4STR1-Time to Ascend 4 Stairs"]}, {"conceptId": "C141707", "definition": "4 Stair Ascend - Test grade.", "preferredTerm": "4 Stair Ascend - Test Grade", "submissionValue": "A4STR102", "synonyms": ["A4STR1-Test Grade"]}, {"conceptId": "C147590", "definition": "4 Stair Ascend - Did subject wear orthoses?", "preferredTerm": "4 Stair Ascend - Wear Orthoses", "submissionValue": "A4STR103", "synonyms": ["A4STR1-Wear Orthoses"]}]}