{"_links": {"parentPackage": {"href": "/mdr/ct/packages/sdtmct-2019-09-27", "title": "SDTM Controlled Terminology Package 39 Effective 2019-09-27", "type": "Terminology"}, "priorVersion": {"href": "/mdr/ct/packages/sdtmct-2019-06-28/codelists/C150785", "title": "CDISC Questionnaire NCCN-FACT FBRSI-24 Version 2 Test Name Terminology", "type": "Code List"}, "rootItem": {"href": "/mdr/root/ct/sdtmct/codelists/C150785", "title": "Version-agnostic anchor resource for codelist C150785", "type": "Root Value Domain"}, "self": {"href": "/mdr/ct/packages/sdtmct-2019-09-27/codelists/C150785", "title": "CDISC Questionnaire NCCN-FACT FBRSI-24 Version 2 Test Name Terminology", "type": "Code List"}}, "conceptId": "C150785", "definition": "National Comprehensive Cancer Network/Functional Assessment of Cancer Therapy-Brain Symptom Index-24 Version 2 test name.", "extensible": "false", "name": "National Comprehensive Cancer Network/Functional Assessment of Cancer Therapy-Brain Symptom Index-24 Version 2 Questionnaire Test Name", "preferredTerm": "CDISC Questionnaire NCCN-FACT FBRSI-24 Version 2 Test Name Terminology", "submissionValue": "FAC030TN", "synonyms": ["National Comprehensive Cancer Network/Functional Assessment of Cancer Therapy-Brain Symptom Index-24 Version 2 Questionnaire Test Name"], "terms": [{"conceptId": "C151291", "definition": "National Comprehensive Cancer Network/Functional Assessment of Cancer Therapy-Brain Symptom Index-24 Version 2 - I am able to find the right word(s) to say what I mean.", "preferredTerm": "NCCN-FACT FBRSI-24 Version 2 - Able to Find the Right Words", "submissionValue": "FAC030-Able to Find the Right Words", "synonyms": ["FAC030-Able to Find the Right Words"]}, {"conceptId": "C151292", "definition": "National Comprehensive Cancer Network/Functional Assessment of Cancer Therapy-Brain Symptom Index-24 Version 2 - I am bothered by the change in my personality.", "preferredTerm": "NCCN-FACT FBRSI-24 Version 2 - Bothered by Change in Personality", "submissionValue": "FAC030-Bothered by Change in Personality", "synonyms": ["FAC030-Bothered by Change in Personality"]}, {"conceptId": "C151299", "definition": "National Comprehensive Cancer Network/Functional Assessment of Cancer Therapy-Brain Symptom Index-24 Version 2 - I am bothered by side effects of treatment.", "preferredTerm": "NCCN-FACT FBRSI-24 Version 2 - Bothered by Treatment Side Effect", "submissionValue": "FAC030-Bothered by Treatment Side Effect", "synonyms": ["FAC030-Bothered by Treatment Side Effect"]}, {"conceptId": "C151303", "definition": "National Comprehensive Cancer Network/Functional Assessment of Cancer Therapy-Brain Symptom Index-24 Version 2 - I am content with the quality of my life right now.", "preferredTerm": "NCCN-FACT FBRSI-24 Version 2 - Content With Quality of My Life", "submissionValue": "FAC030-Content With Quality of My Life", "synonyms": ["FAC030-Content With Quality of My Life"]}, {"conceptId": "C151287", "definition": "National Comprehensive Cancer Network/Functional Assessment of Cancer Therapy-Brain Symptom Index-24 Version 2 - I have difficulty expressing my thoughts.", "preferredTerm": "NCCN-FACT FBRSI-24 Version 2 - Difficulty Expressing My Thoughts", "submissionValue": "FAC030-Difficulty Expressing My Thoughts", "synonyms": ["FAC030-Difficulty Expressing My Thoughts"]}, {"conceptId": "C151295", "definition": "National Comprehensive Cancer Network/Functional Assessment of Cancer Therapy-Brain Symptom Index-24 Version 2 - I get frustrated that I cannot do things I used to.", "preferredTerm": "NCCN-FACT FBRSI-24 Version 2 - Frustrated I Cannot Do Things", "submissionValue": "FAC030-Frustrated I Cannot Do Things", "synonyms": ["FAC030-Frustrated I Cannot Do Things"]}, {"conceptId": "C151284", "definition": "National Comprehensive Cancer Network/Functional Assessment of Cancer Therapy-Brain Symptom Index-24 Version 2 - I have weakness in my arms or legs.", "preferredTerm": "NCCN-FACT FBRSI-24 Version 2 - Have Weakness in My Arms or Legs", "submissionValue": "FAC030-Have Weakness in My Arms or Legs", "synonyms": ["FAC030-Have Weakness in My Arms or Legs"]}, {"conceptId": "C151289", "definition": "National Comprehensive Cancer Network/Functional Assessment of Cancer Therapy-Brain Symptom Index-24 Version 2 - I am able to concentrate.", "preferredTerm": "NCCN-FACT FBRSI-24 Version 2 - I Am Able to Concentrate", "submissionValue": "FAC030-I Am Able to Concentrate", "synonyms": ["FAC030-I Am Able to Concentrate"]}, {"conceptId": "C151302", "definition": "National Comprehensive Cancer Network/Functional Assessment of Cancer Therapy-Brain Symptom Index-24 Version 2 - I am able to enjoy life.", "preferredTerm": "NCCN-FACT FBRSI-24 Version 2 - I Am Able to Enjoy Life", "submissionValue": "FAC030-I Am Able to Enjoy Life", "synonyms": ["FAC030-I Am Able to Enjoy Life"]}, {"conceptId": "C151294", "definition": "National Comprehensive Cancer Network/Functional Assessment of Cancer Therapy-Brain Symptom Index-24 Version 2 - I am afraid of having a seizure (convulsion).", "preferredTerm": "NCCN-FACT FBRSI-24 Version 2 - I Am Afraid of Having a Seizure", "submissionValue": "FAC030-I Am Afraid of Having a Seizure", "synonyms": ["FAC030-I Am Afraid of Having a Seizure"]}, {"conceptId": "C151285", "definition": "National Comprehensive Cancer Network/Functional Assessment of Cancer Therapy-Brain Symptom Index-24 Version 2 - I am losing weight.", "preferredTerm": "NCCN-FACT FBRSI-24 Version 2 - I Am Losing Weight", "submissionValue": "FAC030-I Am Losing Weight", "synonyms": ["FAC030-I Am Losing Weight"]}, {"conceptId": "C151288", "definition": "National Comprehensive Cancer Network/Functional Assessment of Cancer Therapy-Brain Symptom Index-24 Version 2 - I am sleeping well.", "preferredTerm": "NCCN-FACT FBRSI-24 Version 2 - I Am Sleeping Well", "submissionValue": "FAC030-I Am Sleeping Well", "synonyms": ["FAC030-I Am Sleeping Well"]}, {"conceptId": "C151290", "definition": "National Comprehensive Cancer Network/Functional Assessment of Cancer Therapy-Brain Symptom Index-24 Version 2 - I can remember new things.", "preferredTerm": "NCCN-FACT FBRSI-24 Version 2 - I Can Remember New Things", "submissionValue": "FAC030-I Can Remember New Things", "synonyms": ["FAC030-I Can Remember New Things"]}, {"conceptId": "C151300", "definition": "National Comprehensive Cancer Network/Functional Assessment of Cancer Therapy-Brain Symptom Index-24 Version 2 - I feel fatigued.", "preferredTerm": "NCCN-FACT FBRSI-24 Version 2 - I Feel Fatigued", "submissionValue": "FAC030-I Feel Fatigued", "synonyms": ["FAC030-I Feel Fatigued"]}, {"conceptId": "C151280", "definition": "National Comprehensive Cancer Network/Functional Assessment of Cancer Therapy-Brain Symptom Index-24 Version 2 - I get headaches.", "preferredTerm": "NCCN-FACT FBRSI-24 Version 2 - I Get Headaches", "submissionValue": "FAC030-I Get Headaches", "synonyms": ["FAC030-I Get Headaches"]}, {"conceptId": "C151282", "definition": "National Comprehensive Cancer Network/Functional Assessment of Cancer Therapy-Brain Symptom Index-24 Version 2 - I have had seizures (convulsions).", "preferredTerm": "NCCN-FACT FBRSI-24 Version 2 - I Have Had Seizures", "submissionValue": "FAC030-I Have Had Seizures", "synonyms": ["FAC030-I Have Had Seizures"]}, {"conceptId": "C151298", "definition": "National Comprehensive Cancer Network/Functional Assessment of Cancer Therapy-Brain Symptom Index-24 Version 2 - I have nausea.", "preferredTerm": "NCCN-FACT FBRSI-24 Version 2 - I Have Nausea", "submissionValue": "FAC030-I Have Nausea", "synonyms": ["FAC030-I Have Nausea"]}, {"conceptId": "C151281", "definition": "National Comprehensive Cancer Network/Functional Assessment of Cancer Therapy-Brain Symptom Index-24 Version 2 - I have trouble with coordination.", "preferredTerm": "NCCN-FACT FBRSI-24 Version 2 - I Have Trouble With Coordination", "submissionValue": "FAC030-I Have Trouble With Coordination", "synonyms": ["FAC030-I Have Trouble With Coordination"]}, {"conceptId": "C151301", "definition": "National Comprehensive Cancer Network/Functional Assessment of Cancer Therapy-Brain Symptom Index-24 Version 2 - I have a good appetite.", "preferredTerm": "NCCN-FACT FBRSI-24 Version 2 - I Have a Good Appetite", "submissionValue": "FAC030-I Have a Good Appetite", "synonyms": ["FAC030-I Have a Good Appetite"]}, {"conceptId": "C151297", "definition": "National Comprehensive Cancer Network/Functional Assessment of Cancer Therapy-Brain Symptom Index-24 Version 2 - I have a lack of energy.", "preferredTerm": "NCCN-FACT FBRSI-24 Version 2 - I Have a Lack of Energy", "submissionValue": "FAC030-I Have a Lack of Energy", "synonyms": ["FAC030-I Have a Lack of Energy"]}, {"conceptId": "C151283", "definition": "National Comprehensive Cancer Network/Functional Assessment of Cancer Therapy-Brain Symptom Index-24 Version 2 - I need help in caring for myself (bathing, dressing, eating, etc.).", "preferredTerm": "NCCN-FACT FBRSI-24 Version 2 - I Need Help in Caring for Myself", "submissionValue": "FAC030-I Need Help in Caring for Myself", "synonyms": ["FAC030-I Need Help in Caring for Myself"]}, {"conceptId": "C151296", "definition": "National Comprehensive Cancer Network/Functional Assessment of Cancer Therapy-Brain Symptom Index-24 Version 2 - I am losing hope in the fight against my illness.", "preferredTerm": "NCCN-FACT FBRSI-24 Version 2 - Losing Hope Against Illness", "submissionValue": "FAC030-Losing Hope Against Illness", "synonyms": ["FAC030-Losing Hope Against Illness"]}, {"conceptId": "C151286", "definition": "National Comprehensive Cancer Network/Functional Assessment of Cancer Therapy-Brain Symptom Index-24 Version 2 - Because of my physical condition, I have trouble meeting the needs of my family.", "preferredTerm": "NCCN-FACT FBRSI-24 Version 2 - Trouble Meeting Needs of Family", "submissionValue": "FAC030-Trouble Meeting Needs of Family", "synonyms": ["FAC030-Trouble Meeting Needs of Family"]}, {"conceptId": "C151293", "definition": "National Comprehensive Cancer Network/Functional Assessment of Cancer Therapy-Brain Symptom Index-24 Version 2 - I worry that my condition will get worse.", "preferredTerm": "NCCN-FACT FBRSI-24 Version 2 - Worry My Condition Will Get Worse", "submissionValue": "FAC030-Worry My Condition Will Get Worse", "synonyms": ["FAC030-Worry My Condition Will Get Worse"]}]}