{"_links": {"parentPackage": {"href": "/mdr/ct/packages/sdtmct-2019-09-27", "title": "SDTM Controlled Terminology Package 39 Effective 2019-09-27", "type": "Terminology"}, "priorVersion": {"href": "/mdr/ct/packages/sdtmct-2019-06-28/codelists/C154686", "title": "CDISC SDTM Nutrition Findings About Test Name Terminology", "type": "Code List"}, "rootItem": {"href": "/mdr/root/ct/sdtmct/codelists/C154686", "title": "Version-agnostic anchor resource for codelist C154686", "type": "Root Value Domain"}, "self": {"href": "/mdr/ct/packages/sdtmct-2019-09-27/codelists/C154686", "title": "CDISC SDTM Nutrition Findings About Test Name Terminology", "type": "Code List"}}, "conceptId": "C154686", "definition": "Terminology relevant to the test names that describe findings about a nutrition event or intervention.", "extensible": "true", "name": "Nutrition Findings About Test Name", "preferredTerm": "CDISC SDTM Nutrition Findings About Test Name Terminology", "submissionValue": "NTFATS", "synonyms": ["Nutrition Findings About Test Name"], "terms": [{"conceptId": "C95110", "definition": "A description about the firmness or make-up of an entity.", "preferredTerm": "Consistency", "submissionValue": "Consistency", "synonyms": ["Consistency"]}, {"conceptId": "C25515", "definition": "The number of times an event occurs within a given time period.", "preferredTerm": "Temporal Frequency", "submissionValue": "Event Frequency", "synonyms": ["Event Frequency"]}, {"conceptId": "C127786", "definition": "An indication as to whether something has happened, such as an event or incident.", "preferredTerm": "Occurrence Indicator", "submissionValue": "Occurrence Indicator", "synonyms": ["Occurrence Indicator"]}, {"conceptId": "C25676", "definition": "The degree of something undesirable.", "preferredTerm": "Severity", "submissionValue": "Severity/Intensity", "synonyms": ["Severity/Intensity"]}]}