{"_links": {"parentPackage": {"href": "/mdr/ct/packages/sdtmct-2019-09-27", "title": "SDTM Controlled Terminology Package 39 Effective 2019-09-27", "type": "Terminology"}, "priorVersion": {"href": "/mdr/ct/packages/sdtmct-2019-06-28/codelists/C160925", "title": "CDISC Therapeutic Area User Guide Response Terminology", "type": "Code List"}, "rootItem": {"href": "/mdr/root/ct/sdtmct/codelists/C160925", "title": "Version-agnostic anchor resource for codelist C160925", "type": "Root Value Domain"}, "self": {"href": "/mdr/ct/packages/sdtmct-2019-09-27/codelists/C160925", "title": "CDISC Therapeutic Area User Guide Response Terminology", "type": "Code List"}}, "conceptId": "C160925", "definition": "Terminology relevant to the name and version of the CDISC therapeutic area user guide used in the study.", "extensible": "true", "name": "CDISC Therapeutic Area User Guide Response", "preferredTerm": "CDISC Therapeutic Area User Guide Response Terminology", "submissionValue": "CTAUGRS", "synonyms": ["CDISC Therapeutic Area User Guide Response"], "terms": [{"conceptId": "C161458", "definition": "Version 1.0 of the CDISC Alzheimer's therapeutic area user guide.", "preferredTerm": "CDISC Alzheimer's Therapeutic Area User Guide Version 1.0", "submissionValue": "Alzheimer's Therapeutic Area User Guide v1.0"}, {"conceptId": "C161459", "definition": "Version 2.0 of the CDISC Alzheimer's therapeutic area user guide.", "preferredTerm": "CDISC Alzheimer's Therapeutic Area User Guide Version 2.0", "submissionValue": "Alzheimer's Therapeutic Area User Guide v2.0"}, {"conceptId": "C161460", "definition": "Version 1.0 of the CDISC Asthma therapeutic area user guide.", "preferredTerm": "CDISC Asthma Therapeutic Area User Guide Version 1.0", "submissionValue": "Asthma Therapeutic Area User Guide v1.0"}, {"conceptId": "C161461", "definition": "Version 1.0 of the CDISC Breast Cancer therapeutic area user guide.", "preferredTerm": "CDISC Breast Cancer Therapeutic Area User Guide Version 1.0", "submissionValue": "Breast Cancer Therapeutic Area User Guide v1.0"}, {"conceptId": "C161464", "definition": "Version 1.0 of the CDISC COPD therapeutic area user guide.", "preferredTerm": "CDISC COPD Therapeutic Area User Guide Version 1.0", "submissionValue": "COPD Therapeutic Area User Guide v1.0"}, {"conceptId": "C161462", "definition": "Version 1.0 of the CDISC Cardiovascular Studies therapeutic area user guide.", "preferredTerm": "CDISC Cardiovascular Studies Therapeutic Area User Guide Version 1.0", "submissionValue": "Cardiovascular Studies Therapeutic Area User Guide v1.0"}, {"conceptId": "C161438", "definition": "Version 1.0 of the CDISC Chronic Hepatitis C therapeutic area user guide.", "preferredTerm": "CDISC Chronic Hepatitis C Therapeutic Area User Guide Version 1.0", "submissionValue": "Chronic Hepatitis C Therapeutic Area User Guide v1.0"}, {"conceptId": "C161463", "definition": "Version 1.0 of the CDISC Colorectal Cancer therapeutic area user guide.", "preferredTerm": "CDISC Colorectal Cancer Therapeutic Area User Guide Version 1.0", "submissionValue": "Colorectal Cancer Therapeutic Area User Guide v1.0"}, {"conceptId": "C161313", "definition": "Version 1.0 of the CDISC Diabetes therapeutic area user guide ADaM supplement.", "preferredTerm": "CDISC Diabetes Therapeutic Area User Guide Version 1.0 - Supplement for ADaM", "submissionValue": "Diabetes Therapeutic Area User Guide v1.0 - Supplement for ADaM"}, {"conceptId": "C161439", "definition": "Version 1.0 of the CDISC Diabetic Kidney Disease therapeutic area user guide.", "preferredTerm": "CDISC Diabetic Kidney Disease Therapeutic Area User Guide Version 1.0", "submissionValue": "Diabetic Kidney Disease Therapeutic Area User Guide v1.0"}, {"conceptId": "C161440", "definition": "Version 1.0 of the CDISC Duchenne Muscular Dystrophy therapeutic area user guide.", "preferredTerm": "CDISC Duchenne Muscular Dystrophy Therapeutic Area User Guide Version 1.0", "submissionValue": "Duchenne Muscular Dystrophy Therapeutic Area User Guide v1.0"}, {"conceptId": "C161441", "definition": "Version 1.0 of the CDISC Dyslipidemia therapeutic area user guide.", "preferredTerm": "CDISC Dyslipidemia Therapeutic Area User Guide Version 1.0", "submissionValue": "Dyslipidemia Therapeutic Area User Guide v1.0"}, {"conceptId": "C161442", "definition": "Version 1.0 of the CDISC Ebola therapeutic area user guide.", "preferredTerm": "CDISC Ebola Therapeutic Area User Guide Version 1.0", "submissionValue": "Ebola Therapeutic Area User Guide v1.0"}, {"conceptId": "C161465", "definition": "Version 1.0 of the CDISC HIV therapeutic area user guide.", "preferredTerm": "CDISC HIV Therapeutic Area User Guide Version 1.0", "submissionValue": "HIV Therapeutic Area User Guide v1.0"}, {"conceptId": "C161466", "definition": "Version 1.0 of the CDISC Huntington's Disease therapeutic area user guide.", "preferredTerm": "CDISC Huntington's Disease Therapeutic Area User Guide Version 1.0", "submissionValue": "Huntington's Disease Therapeutic Area User Guide v1.0"}, {"conceptId": "C161444", "definition": "Version 1.0 of the CDISC Influenza therapeutic area user guide.", "preferredTerm": "CDISC Influenza Therapeutic Area User Guide Version 1.0", "submissionValue": "Influenza Therapeutic Area User Guide v1.0"}, {"conceptId": "C161443", "definition": "Version 1.1 of the CDISC Influenza therapeutic area user guide.", "preferredTerm": "CDISC Influenza Therapeutic Area User Guide Version 1.1", "submissionValue": "Influenza Therapeutic Area User Guide v1.1"}, {"conceptId": "C161445", "definition": "Version 1.0 of the CDISC Kidney Transplant therapeutic area user guide.", "preferredTerm": "CDISC Kidney Transplant Therapeutic Area User Guide Version 1.0", "submissionValue": "Kidney Transplant Therapeutic Area User Guide v1.0"}, {"conceptId": "C161446", "definition": "Version 1.0 of the CDISC Major Depressive Disorder therapeutic area user guide.", "preferredTerm": "CDISC Major Depressive Disorder Therapeutic Area User Guide Version 1.0", "submissionValue": "Major Depressive Disorder Therapeutic Area User Guide v1.0"}, {"conceptId": "C161447", "definition": "Version 1.0 of the CDISC Malaria therapeutic area user guide.", "preferredTerm": "CDISC Malaria Therapeutic Area User Guide Version 1.0", "submissionValue": "Malaria Therapeutic Area User Guide v1.0"}, {"conceptId": "C161467", "definition": "Version 1.0 of the CDISC Multiple Sclerosis therapeutic area user guide.", "preferredTerm": "CDISC Multiple Sclerosis Therapeutic Area User Guide Version 1.0", "submissionValue": "Multiple Sclerosis Therapeutic Area User Guide v1.0"}, {"conceptId": "C161468", "definition": "Version 1.0 of the CDISC Pain therapeutic area user guide.", "preferredTerm": "CDISC Pain Therapeutic Area User Guide Version 1.0", "submissionValue": "Pain Therapeutic Area User Guide v1.0"}, {"conceptId": "C161469", "definition": "Version 1.1 of the CDISC Pain therapeutic area user guide.", "preferredTerm": "CDISC Pain Therapeutic Area User Guide Version 1.1", "submissionValue": "Pain Therapeutic Area User Guide v1.1"}, {"conceptId": "C161470", "definition": "Version 1.0 of the Parkinson's Disease CDISC therapeutic area user guide.", "preferredTerm": "CDISC Parkinson's Disease Therapeutic Area User Guide Version 1.0", "submissionValue": "Parkinson's Disease Therapeutic Area User Guide v1.0"}, {"conceptId": "C161471", "definition": "Version 1.0 of the Polycystic Kidney Disease CDISC therapeutic area user guide.", "preferredTerm": "CDISC Polycystic Kidney Disease (PKD) Therapeutic Area User Guide Version 1.0", "submissionValue": "Polycystic Kidney Disease (PKD) Therapeutic Area User Guide v1.0"}, {"conceptId": "C161472", "definition": "Version 1.0 of the Post Traumatic Stress Disorder CDISC therapeutic area user guide.", "preferredTerm": "CDISC Post Traumatic Stress Disorder Therapeutic Area User Guide Version 1.0", "submissionValue": "Post Traumatic Stress Disorder Therapeutic Area User Guide v1.0"}, {"conceptId": "C161448", "definition": "Version 1.0 of the CDISC Prostate Cancer therapeutic area user guide.", "preferredTerm": "CDISC Prostate Cancer Therapeutic Area User Guide Version 1.0", "submissionValue": "Prostate Cancer Therapeutic Area User Guide v1.0"}, {"conceptId": "C161449", "definition": "Version 1.0 of the CDISC QT Studies therapeutic area user guide.", "preferredTerm": "CDISC QT Studies Therapeutic Area User Guide Version 1.0", "submissionValue": "QT Studies Therapeutic Area User Guide v1.0"}, {"conceptId": "C161450", "definition": "Version 1.0 of the CDISC Rheumatoid Arthritis therapeutic area user guide.", "preferredTerm": "CDISC Rheumatoid Arthritis Therapeutic Area User Guide Version 1.0", "submissionValue": "Rheumatoid Arthritis Therapeutic Area User Guide v1.0"}, {"conceptId": "C161452", "definition": "Version 1.0 of the CDISC Schizophrenia therapeutic area user guide.", "preferredTerm": "CDISC Schizophrenia Therapeutic Area User Guide Version 1.0", "submissionValue": "Schizophrenia Therapeutic Area User Guide v1.0"}, {"conceptId": "C161451", "definition": "Version 1.1 of the CDISC Schizophrenia therapeutic area user guide.", "preferredTerm": "CDISC Schizophrenia Therapeutic Area User Guide Version 1.1", "submissionValue": "Schizophrenia Therapeutic Area User Guide v1.1"}, {"conceptId": "C161453", "definition": "Version 1.0 of the CDISC Traumatic Brain Injury therapeutic area user guide.", "preferredTerm": "CDISC Traumatic Brain Injury Therapeutic Area User Guide Version 1.0", "submissionValue": "Traumatic Brain Injury Therapeutic Area User Guide v1.0"}, {"conceptId": "C161454", "definition": "Version2.0 of the CDISC Tuberculosis therapeutic area user guide.", "preferredTerm": "CDISC Tuberculosis Therapeutic Area User Guide Version 2.0", "submissionValue": "Tuberculosis Therapeutic Area User Guide v2.0"}, {"conceptId": "C161455", "definition": "Version 1.1 of the CDISC Vaccines therapeutic area user guide.", "preferredTerm": "CDISC Vaccines Therapeutic Area User Guide Version 1.1", "submissionValue": "Vaccines Therapeutic Area User Guide v1.1"}, {"conceptId": "C161457", "definition": "Version 2.0 of the CDISC Virology therapeutic area user guide.", "preferredTerm": "CDISC Virology Therapeutic Area User Guide Version 2.0", "submissionValue": "Virology Therapeutic Area User Guide v2.0"}, {"conceptId": "C161456", "definition": "Version 2.1 of the CDISC Virology therapeutic area user guide.", "preferredTerm": "CDISC Virology Therapeutic Area User Guide Version 2.1", "submissionValue": "Virology Therapeutic Area User Guide v2.1"}]}