{"_links": {"parentPackage": {"href": "/mdr/ct/packages/sdtmct-2019-09-27", "title": "SDTM Controlled Terminology Package 39 Effective 2019-09-27", "type": "Terminology"}, "priorVersion": {"href": "/mdr/ct/packages/sdtmct-2019-06-28/codelists/C161625", "title": "CDISC Clinical Classification BPRS 1988 Version Test Code Terminology", "type": "Code List"}, "rootItem": {"href": "/mdr/root/ct/sdtmct/codelists/C161625", "title": "Version-agnostic anchor resource for codelist C161625", "type": "Root Value Domain"}, "self": {"href": "/mdr/ct/packages/sdtmct-2019-09-27/codelists/C161625", "title": "CDISC Clinical Classification BPRS 1988 Version Test Code Terminology", "type": "Code List"}}, "conceptId": "C161625", "definition": "Brief Psychiatric Rating Scale 1988 Version test code.", "extensible": "false", "name": "Brief Psychiatric Rating Scale 1988 Version Clinical Classification Test Code", "preferredTerm": "CDISC Clinical Classification BPRS 1988 Version Test Code Terminology", "submissionValue": "BPR02TC", "synonyms": ["Brief Psychiatric Rating Scale 1988 Version Clinical Classification Test Code"], "terms": [{"conceptId": "C161741", "definition": "Brief Psychiatric Rating Scale 1988 Version - Somatic concern.", "preferredTerm": "BPRS 1988 Version - Somatic Concern", "submissionValue": "BPR0201", "synonyms": ["BPR02-Somatic Concern"]}, {"conceptId": "C161742", "definition": "Brief Psychiatric Rating Scale 1988 Version - Anxiety.", "preferredTerm": "BPRS 1988 Version - Anxiety", "submissionValue": "BPR0202", "synonyms": ["BPR02-Anxiety"]}, {"conceptId": "C161743", "definition": "Brief Psychiatric Rating Scale 1988 Version - Emotional withdrawal.", "preferredTerm": "BPRS 1988 Version - Emotional Withdrawal", "submissionValue": "BPR0203", "synonyms": ["BPR02-Emotional Withdrawal"]}, {"conceptId": "C161744", "definition": "Brief Psychiatric Rating Scale 1988 Version - Conceptual disorganization.", "preferredTerm": "BPRS 1988 Version - Conceptual Disorganization", "submissionValue": "BPR0204", "synonyms": ["BPR02-Conceptual Disorganization"]}, {"conceptId": "C161745", "definition": "Brief Psychiatric Rating Scale 1988 Version - Guilt feelings.", "preferredTerm": "BPRS 1988 Version - Guilt Feelings", "submissionValue": "BPR0205", "synonyms": ["BPR02-Guilt Feelings"]}, {"conceptId": "C161746", "definition": "Brief Psychiatric Rating Scale 1988 Version - Tension.", "preferredTerm": "BPRS 1988 Version - Tension", "submissionValue": "BPR0206", "synonyms": ["BPR02-Tension"]}, {"conceptId": "C161747", "definition": "Brief Psychiatric Rating Scale 1988 Version - Mannerisms and posturing.", "preferredTerm": "BPRS 1988 Version - Mannerisms and Posturing", "submissionValue": "BPR0207", "synonyms": ["BPR02-Mannerisms and Posturing"]}, {"conceptId": "C161748", "definition": "Brief Psychiatric Rating Scale 1988 Version - Grandiosity.", "preferredTerm": "BPRS 1988 Version - Grandiosity", "submissionValue": "BPR0208", "synonyms": ["BPR02-Grandiosity"]}, {"conceptId": "C161749", "definition": "Brief Psychiatric Rating Scale 1988 Version - Depressive mood.", "preferredTerm": "BPRS 1988 Version - Depressive Mood", "submissionValue": "BPR0209", "synonyms": ["BPR02-Depressive Mood"]}, {"conceptId": "C161750", "definition": "Brief Psychiatric Rating Scale 1988 Version - Hostility.", "preferredTerm": "BPRS 1988 Version - Hostility", "submissionValue": "BPR0210", "synonyms": ["BPR02-Hostility"]}, {"conceptId": "C161751", "definition": "Brief Psychiatric Rating Scale 1988 Version - Suspiciousness.", "preferredTerm": "BPRS 1988 Version - Suspiciousness", "submissionValue": "BPR0211", "synonyms": ["BPR02-Suspiciousness"]}, {"conceptId": "C161752", "definition": "Brief Psychiatric Rating Scale 1988 Version - Hallucinatory behavior.", "preferredTerm": "BPRS 1988 Version - Hallucinatory Behavior", "submissionValue": "BPR0212", "synonyms": ["BPR02-Hallucinatory Behavior"]}, {"conceptId": "C161753", "definition": "Brief Psychiatric Rating Scale 1988 Version - Motor retardation.", "preferredTerm": "BPRS 1988 Version - Motor Retardation", "submissionValue": "BPR0213", "synonyms": ["BPR02-Motor Retardation"]}, {"conceptId": "C161754", "definition": "Brief Psychiatric Rating Scale 1988 Version - Uncooperativeness.", "preferredTerm": "BPRS 1988 Version - Uncooperativeness", "submissionValue": "BPR0214", "synonyms": ["BPR02-Uncooperativeness"]}, {"conceptId": "C161755", "definition": "Brief Psychiatric Rating Scale 1988 Version - Unusual thought content.", "preferredTerm": "BPRS 1988 Version - Unusual Thought Content", "submissionValue": "BPR0215", "synonyms": ["BPR02-Unusual Thought Content"]}, {"conceptId": "C161756", "definition": "Brief Psychiatric Rating Scale 1988 Version - Blunted affect.", "preferredTerm": "BPRS 1988 Version - Blunted Affect", "submissionValue": "BPR0216", "synonyms": ["BPR02-Blunted Affect"]}, {"conceptId": "C161757", "definition": "Brief Psychiatric Rating Scale 1988 Version - Excitement.", "preferredTerm": "BPRS 1988 Version - Excitement", "submissionValue": "BPR0217", "synonyms": ["BPR02-Excitement"]}, {"conceptId": "C161758", "definition": "Brief Psychiatric Rating Scale 1988 Version - Disorientation.", "preferredTerm": "BPRS 1988 Version - Disorientation", "submissionValue": "BPR0218", "synonyms": ["BPR02-Disorientation"]}, {"conceptId": "C161759", "definition": "Brief Psychiatric Rating Scale 1988 Version - Total score.", "preferredTerm": "BPRS 1988 Version - Total Score", "submissionValue": "BPR0219", "synonyms": ["BPR02-Total Score"]}]}