{"_links": {"parentPackage": {"href": "/mdr/ct/packages/sdtmct-2019-09-27", "title": "SDTM Controlled Terminology Package 39 Effective 2019-09-27", "type": "Terminology"}, "priorVersion": {"href": "/mdr/ct/packages/sdtmct-2019-06-28/codelists/C161624", "title": "CDISC Clinical Classification BPRS 1988 Version Test Name Terminology", "type": "Code List"}, "rootItem": {"href": "/mdr/root/ct/sdtmct/codelists/C161624", "title": "Version-agnostic anchor resource for codelist C161624", "type": "Root Value Domain"}, "self": {"href": "/mdr/ct/packages/sdtmct-2019-09-27/codelists/C161624", "title": "CDISC Clinical Classification BPRS 1988 Version Test Name Terminology", "type": "Code List"}}, "conceptId": "C161624", "definition": "Brief Psychiatric Rating Scale 1988 Version test name.", "extensible": "false", "name": "Brief Psychiatric Rating Scale 1988 Version Clinical Classification Test Name", "preferredTerm": "CDISC Clinical Classification BPRS 1988 Version Test Name Terminology", "submissionValue": "BPR02TN", "synonyms": ["Brief Psychiatric Rating Scale 1988 Version Clinical Classification Test Name"], "terms": [{"conceptId": "C161742", "definition": "Brief Psychiatric Rating Scale 1988 Version - Anxiety.", "preferredTerm": "BPRS 1988 Version - Anxiety", "submissionValue": "BPR02-Anxiety", "synonyms": ["BPR02-Anxiety"]}, {"conceptId": "C161756", "definition": "Brief Psychiatric Rating Scale 1988 Version - Blunted affect.", "preferredTerm": "BPRS 1988 Version - Blunted Affect", "submissionValue": "BPR02-Blunted Affect", "synonyms": ["BPR02-Blunted Affect"]}, {"conceptId": "C161744", "definition": "Brief Psychiatric Rating Scale 1988 Version - Conceptual disorganization.", "preferredTerm": "BPRS 1988 Version - Conceptual Disorganization", "submissionValue": "BPR02-Conceptual Disorganization", "synonyms": ["BPR02-Conceptual Disorganization"]}, {"conceptId": "C161749", "definition": "Brief Psychiatric Rating Scale 1988 Version - Depressive mood.", "preferredTerm": "BPRS 1988 Version - Depressive Mood", "submissionValue": "BPR02-Depressive Mood", "synonyms": ["BPR02-Depressive Mood"]}, {"conceptId": "C161758", "definition": "Brief Psychiatric Rating Scale 1988 Version - Disorientation.", "preferredTerm": "BPRS 1988 Version - Disorientation", "submissionValue": "BPR02-Disorientation", "synonyms": ["BPR02-Disorientation"]}, {"conceptId": "C161743", "definition": "Brief Psychiatric Rating Scale 1988 Version - Emotional withdrawal.", "preferredTerm": "BPRS 1988 Version - Emotional Withdrawal", "submissionValue": "BPR02-Emotional Withdrawal", "synonyms": ["BPR02-Emotional Withdrawal"]}, {"conceptId": "C161757", "definition": "Brief Psychiatric Rating Scale 1988 Version - Excitement.", "preferredTerm": "BPRS 1988 Version - Excitement", "submissionValue": "BPR02-Excitement", "synonyms": ["BPR02-Excitement"]}, {"conceptId": "C161748", "definition": "Brief Psychiatric Rating Scale 1988 Version - Grandiosity.", "preferredTerm": "BPRS 1988 Version - Grandiosity", "submissionValue": "BPR02-Grandiosity", "synonyms": ["BPR02-Grandiosity"]}, {"conceptId": "C161745", "definition": "Brief Psychiatric Rating Scale 1988 Version - Guilt feelings.", "preferredTerm": "BPRS 1988 Version - Guilt Feelings", "submissionValue": "BPR02-Guilt Feelings", "synonyms": ["BPR02-Guilt Feelings"]}, {"conceptId": "C161752", "definition": "Brief Psychiatric Rating Scale 1988 Version - Hallucinatory behavior.", "preferredTerm": "BPRS 1988 Version - Hallucinatory Behavior", "submissionValue": "BPR02-Hallucinatory Behavior", "synonyms": ["BPR02-Hallucinatory Behavior"]}, {"conceptId": "C161750", "definition": "Brief Psychiatric Rating Scale 1988 Version - Hostility.", "preferredTerm": "BPRS 1988 Version - Hostility", "submissionValue": "BPR02-Hostility", "synonyms": ["BPR02-Hostility"]}, {"conceptId": "C161747", "definition": "Brief Psychiatric Rating Scale 1988 Version - Mannerisms and posturing.", "preferredTerm": "BPRS 1988 Version - Mannerisms and Posturing", "submissionValue": "BPR02-Mannerisms and Posturing", "synonyms": ["BPR02-Mannerisms and Posturing"]}, {"conceptId": "C161753", "definition": "Brief Psychiatric Rating Scale 1988 Version - Motor retardation.", "preferredTerm": "BPRS 1988 Version - Motor Retardation", "submissionValue": "BPR02-Motor Retardation", "synonyms": ["BPR02-Motor Retardation"]}, {"conceptId": "C161741", "definition": "Brief Psychiatric Rating Scale 1988 Version - Somatic concern.", "preferredTerm": "BPRS 1988 Version - Somatic Concern", "submissionValue": "BPR02-Somatic Concern", "synonyms": ["BPR02-Somatic Concern"]}, {"conceptId": "C161751", "definition": "Brief Psychiatric Rating Scale 1988 Version - Suspiciousness.", "preferredTerm": "BPRS 1988 Version - Suspiciousness", "submissionValue": "BPR02-Suspiciousness", "synonyms": ["BPR02-Suspiciousness"]}, {"conceptId": "C161746", "definition": "Brief Psychiatric Rating Scale 1988 Version - Tension.", "preferredTerm": "BPRS 1988 Version - Tension", "submissionValue": "BPR02-Tension", "synonyms": ["BPR02-Tension"]}, {"conceptId": "C161759", "definition": "Brief Psychiatric Rating Scale 1988 Version - Total score.", "preferredTerm": "BPRS 1988 Version - Total Score", "submissionValue": "BPR02-Total Score", "synonyms": ["BPR02-Total Score"]}, {"conceptId": "C161754", "definition": "Brief Psychiatric Rating Scale 1988 Version - Uncooperativeness.", "preferredTerm": "BPRS 1988 Version - Uncooperativeness", "submissionValue": "BPR02-Uncooperativeness", "synonyms": ["BPR02-Uncooperativeness"]}, {"conceptId": "C161755", "definition": "Brief Psychiatric Rating Scale 1988 Version - Unusual thought content.", "preferredTerm": "BPRS 1988 Version - Unusual Thought Content", "submissionValue": "BPR02-Unusual Thought Content", "synonyms": ["BPR02-Unusual Thought Content"]}]}