{"_links": {"parentPackage": {"href": "/mdr/ct/packages/sdtmct-2019-09-27", "title": "SDTM Controlled Terminology Package 39 Effective 2019-09-27", "type": "Terminology"}, "rootItem": {"href": "/mdr/root/ct/sdtmct/codelists/C163027", "title": "Version-agnostic anchor resource for codelist C163027", "type": "Root Value Domain"}, "self": {"href": "/mdr/ct/packages/sdtmct-2019-09-27/codelists/C163027", "title": "CDISC SDTM Type 1 Diabetes Findings About Test Code Terminology", "type": "Code List"}}, "conceptId": "C163027", "definition": "Terminology relevant to the test codes that describe findings about Type 1 Diabetes event or intervention.", "extensible": "true", "name": "Type 1 Diabetes Findings About Test Code", "preferredTerm": "CDISC SDTM Type 1 Diabetes Findings About Test Code Terminology", "submissionValue": "D1FATSCD", "synonyms": ["Type 1 Diabetes Findings About Test Code"], "terms": [{"conceptId": "C117037", "definition": "Action taken with respect to a device in a study, which may or may not be the device under study.", "preferredTerm": "Action Taken with Device", "submissionValue": "ACNDEV", "synonyms": ["Action Taken With Device"]}, {"conceptId": "C163412", "definition": "Action taken with respect to a subject in a study.", "preferredTerm": "Action Taken With Subject", "submissionValue": "ACNSBJ", "synonyms": ["Action Taken With Subject"]}, {"conceptId": "C94596", "definition": "The total amount that a subject is exposed to over time.", "preferredTerm": "Cumulative Exposure", "submissionValue": "CUMEXP", "synonyms": ["Cumulative Exposure"]}, {"conceptId": "C124281", "definition": "The total number of episodes that have occurred for the condition.", "preferredTerm": "Number of Episodes", "submissionValue": "EPSDNUM", "synonyms": ["Number of Episodes"]}, {"conceptId": "C163413", "definition": "The factor that causes or triggers the onset of an occurrence.", "preferredTerm": "Precipitating Factor", "submissionValue": "PPTFCT", "synonyms": ["Precipitating Factor"]}, {"conceptId": "C163414", "definition": "The relationship of an event to a device, which may or may not be a device under study.", "preferredTerm": "Relationship to Device", "submissionValue": "RLDEV", "synonyms": ["Relationship to Device"]}]}