{"_links": {"parentPackage": {"href": "/mdr/ct/packages/sdtmct-2019-09-27", "title": "SDTM Controlled Terminology Package 39 Effective 2019-09-27", "type": "Terminology"}, "priorVersion": {"href": "/mdr/ct/packages/sdtmct-2019-06-28/codelists/C66731", "title": "CDISC SDTM Sex of Individual Terminology", "type": "Code List"}, "rootItem": {"href": "/mdr/root/ct/sdtmct/codelists/C66731", "title": "Version-agnostic anchor resource for codelist C66731", "type": "Root Value Domain"}, "self": {"href": "/mdr/ct/packages/sdtmct-2019-09-27/codelists/C66731", "title": "CDISC SDTM Sex of Individual Terminology", "type": "Code List"}}, "conceptId": "C66731", "definition": "The assemblage of physical properties or qualities by which male is distinguished from female; the physical difference between male and female; the distinguishing peculiarity of male or female. (NCI)", "extensible": "false", "name": "Sex", "preferredTerm": "CDISC SDTM Sex of Individual Terminology", "submissionValue": "SEX", "synonyms": ["Sex"], "terms": [{"conceptId": "C16576", "definition": "A person who belongs to the sex that normally produces ova. The term is used to indicate biological sex distinctions, or cultural gender role distinctions, or both. (NCI)", "preferredTerm": "Female", "submissionValue": "F", "synonyms": ["Female"]}, {"conceptId": "C20197", "definition": "A person who belongs to the sex that normally produces sperm. The term is used to indicate biological sex distinctions, cultural gender role distinctions, or both. (NCI)", "preferredTerm": "Male", "submissionValue": "M", "synonyms": ["Male"]}, {"conceptId": "C17998", "definition": "Not known, not observed, not recorded, or refused. (NCI)", "preferredTerm": "Unknown", "submissionValue": "U", "synonyms": ["U", "UNK", "Unknown"]}, {"conceptId": "C45908", "definition": "A person (one of unisexual specimens) who is born with genitalia and/or secondary sexual characteristics of indeterminate sex, or which combine features of both sexes. (NCI)", "preferredTerm": "Intersex", "submissionValue": "UNDIFFERENTIATED"}]}