{"_links": {"parentPackage": {"href": "/mdr/ct/packages/sdtmct-2019-09-27", "title": "SDTM Controlled Terminology Package 39 Effective 2019-09-27", "type": "Terminology"}, "priorVersion": {"href": "/mdr/ct/packages/sdtmct-2019-06-28/codelists/C96781", "title": "CDISC SDTM Tumor Response Assessment Test Name Terminology", "type": "Code List"}, "rootItem": {"href": "/mdr/root/ct/sdtmct/codelists/C96781", "title": "Version-agnostic anchor resource for codelist C96781", "type": "Root Value Domain"}, "self": {"href": "/mdr/ct/packages/sdtmct-2019-09-27/codelists/C96781", "title": "CDISC SDTM Tumor Response Assessment Test Name Terminology", "type": "Code List"}}, "conceptId": "C96781", "definition": "Terminology for oncology studies relevant to the test names that describe an assessment of response to treatment or therapy within the disease response and clinical classification domain.", "extensible": "true", "name": "Oncology Response Assessment Test Name", "preferredTerm": "CDISC SDTM Tumor Response Assessment Test Name Terminology", "submissionValue": "ONCRTS", "synonyms": ["Oncology Response Assessment Test Name"], "terms": [{"conceptId": "C156564", "definition": "An assessment of the anatomic response (based on changes in size of anatomic structures) of the disease to the therapy.", "preferredTerm": "Anatomic Response", "submissionValue": "Anatomic Response", "synonyms": ["Anatomic Response"]}, {"conceptId": "C94536", "definition": "An assessment of the most clinically favorable overall response of the disease to the therapy.", "preferredTerm": "Best Overall Response", "submissionValue": "Best Overall Response", "synonyms": ["Best Overall Response", "Best Response"]}, {"conceptId": "C135477", "definition": "An indication as to whether disease is present in the bone marrow.", "preferredTerm": "Bone Marrow Disease Involvement Indicator", "submissionValue": "Bone Marrow Involvement Indicator", "synonyms": ["Bone Marrow Involvement Indicator"]}, {"conceptId": "C132455", "definition": "An assessment of the bone response of the disease to the therapy.", "preferredTerm": "Bone Response", "submissionValue": "Bone Response", "synonyms": ["Bone Response"]}, {"conceptId": "C135478", "definition": "An assessment of the clinical performance, measured by a rating or scale, as a condition of disease response to therapy. (NCI)", "preferredTerm": "Clinical Performance Status", "submissionValue": "Clinical Performance Status", "synonyms": ["Clinical Performance Status"]}, {"conceptId": "C123619", "definition": "An assessment of the clinical response of the disease to the therapy.", "preferredTerm": "Clinical Response", "submissionValue": "Clinical Response", "synonyms": ["Clinical Response"]}, {"conceptId": "C123620", "definition": "An assessment of the cytogenetic response of the disease to the therapy.", "preferredTerm": "Cytogenetic Response", "submissionValue": "Cytogenetic Response", "synonyms": ["Cytogenetic Response"]}, {"conceptId": "C123621", "definition": "An indication as to whether disease recurrence occurred.", "preferredTerm": "Disease Recurrence Indicator", "submissionValue": "Disease Recurrence Indicator", "synonyms": ["Disease Recurrence Indicator"]}, {"conceptId": "C123622", "definition": "An assessment of the hematologic response of the disease to the therapy.", "preferredTerm": "Hematologic Response", "submissionValue": "Hematologic Response", "synonyms": ["Hematologic Response"]}, {"conceptId": "C135479", "definition": "An assessment of the disease response to therapy within the liver.", "preferredTerm": "Disease Response in Liver", "submissionValue": "Liver Response", "synonyms": ["Liver Response"]}, {"conceptId": "C123623", "definition": "An assessment of the metabolic response of the disease to the therapy.", "preferredTerm": "Metabolic Response", "submissionValue": "Metabolic Response", "synonyms": ["Metabolic Response"]}, {"conceptId": "C132456", "definition": "An indication as to whether disease metastasis has occurred.", "preferredTerm": "Metastatic Disease Indicator", "submissionValue": "Metastatic Indicator", "synonyms": ["Metastatic Indicator"]}, {"conceptId": "C124433", "definition": "An assessment of the minimal residual disease response of the disease to the therapy.", "preferredTerm": "Minimal Residual Disease Response", "submissionValue": "Minimal Residual Disease Response", "synonyms": ["MRD Response", "Minimal Residual Disease Response"]}, {"conceptId": "C123624", "definition": "An assessment of the molecular response of the disease to the therapy.", "preferredTerm": "Molecular Response", "submissionValue": "Molecular Response", "synonyms": ["Molecular Response"]}, {"conceptId": "C123625", "definition": "An assessment of the morphologic response of the disease to the therapy.", "preferredTerm": "Morphologic Response", "submissionValue": "Morphologic Response", "synonyms": ["Morphologic Response"]}, {"conceptId": "C142362", "definition": "An indication as to whether new lesions are present, in comparison to a previous timepoint.", "preferredTerm": "New Lesion Indicator", "submissionValue": "New Lesion Indicator", "synonyms": ["New Lesion Indicator"]}, {"conceptId": "C103420", "definition": "An assessment of the equivocality of disease progression based on a newly identified lesion.", "preferredTerm": "New Lesion Progression", "submissionValue": "New Lesion Progression", "synonyms": ["New Lesion Progression"]}, {"conceptId": "C142363", "definition": "An indication as to whether the previously identified new lesions are showing signs of worsening.", "preferredTerm": "New Lesion Worsening Indicator", "submissionValue": "New Lesion Worsening Indicator", "synonyms": ["New Lesion Worsening Indicator"]}, {"conceptId": "C135480", "definition": "An assessment of the response to the therapy of the non-target enhancing disease. (NCI)", "preferredTerm": "Non-Target Enhancing Lesion Response", "submissionValue": "Non-Target Enhancing Response", "synonyms": ["Non-Target Enhancing Response"]}, {"conceptId": "C142364", "definition": "An indication as to whether non-target lesions, which have previously shown progression, are showing additional signs of worsening.", "preferredTerm": "Non-Target Lesion Worsening Indicator", "submissionValue": "Non-Target Lesion Worsening Indicator", "synonyms": ["Non-Target Lesion Worsening Indicator"]}, {"conceptId": "C135481", "definition": "An assessment of the response to the therapy of the non-target non-enhancing disease. (NCI)", "preferredTerm": "Non-Target Non-Enhancing Lesion Response", "submissionValue": "Non-Target Non-Enhancing Response", "synonyms": ["Non-Target Non-Enhancing Response"]}, {"conceptId": "C94535", "definition": "An assessment of the response of a non-target tumor(s) to the therapy.", "preferredTerm": "Response in Non-Target Lesion", "submissionValue": "Non-target Response", "synonyms": ["Non-target Response"]}, {"conceptId": "C96613", "definition": "An assessment of the overall response of the disease to the therapy. (NCI)", "preferredTerm": "Overall Response", "submissionValue": "Overall Response", "synonyms": ["Overall Response"]}, {"conceptId": "C123626", "definition": "An assessment of the pathologic response of the disease to the therapy.", "preferredTerm": "Pathologic Response", "submissionValue": "Pathologic Response", "synonyms": ["Pathologic Response"]}, {"conceptId": "C123627", "definition": "An assessment of the radiologic response of the disease to the therapy.", "preferredTerm": "Radiologic Response", "submissionValue": "Radiologic Response", "synonyms": ["Radiologic Response"]}, {"conceptId": "C132457", "definition": "An assessment of the soft tissue response of the disease to the therapy.", "preferredTerm": "Soft Tissue Response", "submissionValue": "Soft Tissue Response", "synonyms": ["Soft Tissue Response"]}, {"conceptId": "C135482", "definition": "An assessment of the disease response to therapy within the spleen.", "preferredTerm": "Disease Response in Spleen", "submissionValue": "Spleen Response", "synonyms": ["Spleen Response"]}, {"conceptId": "C135483", "definition": "An assessment of steroid usage as a condition of disease response to therapy. (NCI)", "preferredTerm": "Steroid Use Status", "submissionValue": "Steroid Use Status", "synonyms": ["Steroid Use Status"]}, {"conceptId": "C124434", "definition": "A global deterioration of health status providing evidence of disease progression not covered by disease response criteria (eg. RECIST).", "preferredTerm": "Symptomatic Deterioration", "submissionValue": "Symptomatic Deterioration", "synonyms": ["Symptomatic Deterioration"]}, {"conceptId": "C94534", "definition": "An assessment of the response of a target tumor(s) to the therapy.", "preferredTerm": "Response in Target Lesion", "submissionValue": "Target Response", "synonyms": ["Target Response"]}, {"conceptId": "C132458", "definition": "An assessment of disease response to therapy based on tumor marker measurement.", "preferredTerm": "Tumor Marker Response", "submissionValue": "Tumor Marker Response", "synonyms": ["Tumor Marker Response"]}]}