{"_links": {"parentPackage": {"href": "/mdr/ct/packages/protocolct-2022-09-30", "title": "Protocol Controlled Terminology Package 51 Effective 2022-09-30", "type": "Terminology"}, "priorVersion": {"href": "/mdr/ct/packages/protocolct-2022-06-24/codelists/C132309", "title": "CDISC Protocol Entities Study Protocol Attribute Terminology", "type": "Code List"}, "rootItem": {"href": "/mdr/root/ct/protocolct/codelists/C132309", "title": "Version-agnostic anchor resource for codelist C132309", "type": "Root Value Domain"}, "self": {"href": "/mdr/ct/packages/protocolct-2022-09-30/codelists/C132309", "title": "CDISC Protocol Entities Study Protocol Attribute Terminology", "type": "Code List"}}, "conceptId": "C132309", "definition": "A terminology value set relevant to the attributes of the study protocol entity.", "name": "Study Protocol Attribute Terminology", "preferredTerm": "CDISC Protocol Entities Study Protocol Attribute Terminology", "submissionValue": "Study Protocol Attribute Terminology", "synonyms": ["Study Protocol Attribute Terminology"], "terms": [{"conceptId": "C132344", "definition": "A unique code assigned by an affiliated governing body or other organization that identifies a specific protocol (e.g., grant number, national number).", "preferredTerm": "Alternate Protocol Identifier", "submissionValue": "Alternate Protocol Identifier"}, {"conceptId": "C132345", "definition": "The short descriptive name for the protocol.", "preferredTerm": "Brief Protocol Title", "submissionValue": "Brief Protocol Title", "synonyms": ["Abbreviated Protocol Title"]}, {"conceptId": "C132346", "definition": "The formal descriptive name for the protocol.", "preferredTerm": "Official Protocol Title", "submissionValue": "Official Protocol Title"}, {"conceptId": "C132347", "definition": "A written description of a change(s) to, or formal clarification of, a protocol. (ICH E6)", "preferredTerm": "Protocol Amendment", "submissionValue": "Protocol Amendment"}, {"conceptId": "C51853", "definition": "A person who is the writer of a structured research study protocol.", "preferredTerm": "Protocol Author", "submissionValue": "Protocol Author"}, {"conceptId": "C115628", "definition": "A scientific summary of the key points of the protocol.", "preferredTerm": "Clinical Trial Protocol Synopsis", "submissionValue": "Protocol Synopsis", "synonyms": ["Protocol Scientific Summary"]}, {"conceptId": "C94105", "definition": "The descriptive name of the protocol that is intended for the lay public, written in easily understood language.", "preferredTerm": "Study Protocol Document Version Public Title", "submissionValue": "Public Protocol Title"}, {"conceptId": "C132348", "definition": "A unique code assigned by a clinical trial registry that identifies a specific protocol.", "preferredTerm": "Registry Protocol Identifier", "submissionValue": "Registry Protocol Identifier"}, {"conceptId": "C132349", "definition": "A standardized representation of planned clinical trial activities including interventions (e.g., administering drug, surgery) and study administrative activities (e.g., obtaining informed consent, distributing clinical trial material and diaries, randomization) as well as assessments. (CDISC Glossary)", "preferredTerm": "Schedule of Activities", "submissionValue": "Schedule of Activities", "synonyms": ["Schedule of Events", "SoA"]}, {"conceptId": "C132350", "definition": "A more extensive descriptive name of the protocol that is intended for medical professionals, written using medical and scientific language.", "preferredTerm": "Scientific Protocol Title", "submissionValue": "Scientific Protocol Title"}, {"conceptId": "C132351", "definition": "A unique code assigned by the sponsor that identifies a specific protocol.", "preferredTerm": "Sponsor Protocol Identifier", "submissionValue": "Sponsor Protocol Identifier", "synonyms": ["Sponsor Protocol Code", "Sponsor Protocol Number"]}, {"conceptId": "C94108", "definition": "A word or words formed from the beginning letters or a combination of syllables and letters of a compound term, which identifies a clinical study.", "preferredTerm": "Study Protocol Version Acronym", "submissionValue": "Study Acronym", "synonyms": ["Trial Acronym"]}, {"conceptId": "C181245", "definition": "The date on which a version of the protocol was finalized or approved by the study oversight committee.", "preferredTerm": "Study Protocol Version Approval by Oversight Committee Date", "submissionValue": "Study Protocol Version Approval by Oversight Committee Date"}, {"conceptId": "C132352", "definition": "The date on which a version of the protocol was finalized or approved by the sponsor.", "preferredTerm": "Protocol Approval by Sponsor Date", "submissionValue": "Study Protocol Version Approval by Sponsor Date", "synonyms": ["Protocol Amendment Approval by Sponsor Date", "Study Protocol Version Approval Date"]}, {"conceptId": "C93490", "definition": "A plan at a particular point in time for a formal investigation to assess the utility, impact, pharmacological, physiological, and/or psychological effects of a particular treatment, procedure, drug, device, biologic, food product, cosmetic, care plan, or subject characteristic. (BRIDG)", "preferredTerm": "Study Protocol Version", "submissionValue": "Study Protocol Version"}]}