{"_links": {"parentPackage": {"href": "/mdr/ct/packages/protocolct-2022-09-30", "title": "Protocol Controlled Terminology Package 51 Effective 2022-09-30", "type": "Terminology"}, "priorVersion": {"href": "/mdr/ct/packages/protocolct-2022-06-24/codelists/C177904", "title": "CDISC Protocol Study Product Administration Attribute Terminology", "type": "Code List"}, "rootItem": {"href": "/mdr/root/ct/protocolct/codelists/C177904", "title": "Version-agnostic anchor resource for codelist C177904", "type": "Root Value Domain"}, "self": {"href": "/mdr/ct/packages/protocolct-2022-09-30/codelists/C177904", "title": "CDISC Protocol Study Product Administration Attribute Terminology", "type": "Code List"}}, "conceptId": "C177904", "definition": "A terminology value set relevant to the attributes of the study product administration.", "name": "Study Product Administration Attribute", "preferredTerm": "CDISC Protocol Study Product Administration Attribute Terminology", "submissionValue": "Study Product Administration Attribute", "synonyms": ["Study Product Administration Attribute"], "terms": [{"conceptId": "C42636", "definition": "The physical form in which active and/or inert ingredient(s) are presented.", "preferredTerm": "Pharmaceutical Dosage Form", "submissionValue": "Dosage Form", "synonyms": ["Dose Form"]}, {"conceptId": "C142516", "definition": "The schedule of doses of a therapeutic agent per unit of time, including: the time between doses (e.g., every 6 hours) or the time when the dose(s) are to be given (e.g., at 8 a.m. and 4 p.m. daily), and the amount of a medicine (e.g., number of capsules) to be given at each specific time. (Segen's Medical Dictionary)", "preferredTerm": "Dosage Regimen", "submissionValue": "Dosage Regimen"}, {"conceptId": "C89081", "definition": "The number of doses administered per a specific interval.", "preferredTerm": "Dose Frequency", "submissionValue": "Dose Frequency", "synonyms": ["Dosing Frequency"]}, {"conceptId": "C25488", "definition": "The amount of study drug (or placebo) administered to a patient or test subject to be taken at one time or at stated intervals.", "preferredTerm": "Dose", "submissionValue": "Dose", "synonyms": ["Dose Level", "Dose per Administration"]}, {"conceptId": "C177925", "definition": "The rationale or explanation for the planned dose(s).", "preferredTerm": "Justification for Planned Dosage", "submissionValue": "Justification for Dosage"}, {"conceptId": "C177926", "definition": "The rationale or explanation for the planned mode of delivery.", "preferredTerm": "Justification of Planned Administration", "submissionValue": "Justification of Administration"}, {"conceptId": "C38114", "definition": "The pathway by which a substance is administered in order to reach the site of action in the body.", "preferredTerm": "Route of Administration", "submissionValue": "Route of Administration", "synonyms": ["Route of Administration"]}]}