{"_links": {"parentPackage": {"href": "/mdr/ct/packages/protocolct-2022-09-30", "title": "Protocol Controlled Terminology Package 51 Effective 2022-09-30", "type": "Terminology"}, "priorVersion": {"href": "/mdr/ct/packages/protocolct-2022-06-24/codelists/C179587", "title": "CDISC Protocol Biological Sample Attribute Terminology", "type": "Code List"}, "rootItem": {"href": "/mdr/root/ct/protocolct/codelists/C179587", "title": "Version-agnostic anchor resource for codelist C179587", "type": "Root Value Domain"}, "self": {"href": "/mdr/ct/packages/protocolct-2022-09-30/codelists/C179587", "title": "CDISC Protocol Biological Sample Attribute Terminology", "type": "Code List"}}, "conceptId": "C179587", "definition": "A terminology value set relevant to the attributes of the biological sample.", "name": "Biological Sample Attribute Terminology", "preferredTerm": "CDISC Protocol Biological Sample Attribute Terminology", "submissionValue": "Biological Sample Attribute Terminology", "synonyms": ["Biological Sample Attribute Terminology"], "terms": [{"conceptId": "C179744", "definition": "The activities describing the documentation of the storage, inventory tracking, and disposition of the biological sample.", "preferredTerm": "Biospecimen Handling Accountability Record", "submissionValue": "Biological Sample Accountability"}, {"conceptId": "C70700", "definition": "A description of the methodology by which biological material is obtained from a subject.", "preferredTerm": "Biospecimen Collection Method", "submissionValue": "Biological Sample Collection Method"}, {"conceptId": "C178869", "definition": "A description of the timing for the collection of a biological sample, in relation to a study-specific event or time period.", "preferredTerm": "Biospecimen Collection Time", "submissionValue": "Biological Sample Collection Timing"}, {"conceptId": "C70945", "definition": "The activities describing biological sample collection, such as specimen type, timing and methodology.", "preferredTerm": "Biospecimen Collection", "submissionValue": "Biological Sample Collection"}, {"conceptId": "C179745", "definition": "A description of the management of biological sample handling, including methods of collection, processing, shipping, and storage.", "preferredTerm": "Biospecimen Handling", "submissionValue": "Biological Sample Handling", "synonyms": ["Biospecimen Handling", "Handling of Biological Samples", "Handling of Biological Specimens"]}, {"conceptId": "C179746", "definition": "The activities describing how the biological sample is made ready for storage, processing, and/or analysis.", "preferredTerm": "Biospecimen Preparation", "submissionValue": "Biological Sample Preparation"}, {"conceptId": "C181231", "definition": "A textual description as to whether and/or how biological samples are retained for research purposes.", "preferredTerm": "Biological Sample Retention Description", "submissionValue": "Biological Sample Retention", "synonyms": ["Biospecimen Retention"]}, {"conceptId": "C179747", "definition": "The activities describing the logistical considerations for transporting a biological sample from the sender to the receiver.", "preferredTerm": "Biospecimen Shipping", "submissionValue": "Biological Sample Shipping", "synonyms": ["Biological Sample Shipment", "Biological Sample Transport"]}, {"conceptId": "C179748", "definition": "The activities describing the physical or environmental conditions under which the biological sample is maintained.", "preferredTerm": "Biospecimen Storage", "submissionValue": "Biological Sample Storage"}]}