{"_links": {"parentPackage": {"href": "/mdr/ct/packages/protocolct-2022-09-30", "title": "Protocol Controlled Terminology Package 51 Effective 2022-09-30", "type": "Terminology"}, "priorVersion": {"href": "/mdr/ct/packages/protocolct-2022-06-24/codelists/C185850", "title": "CDISC Protocol Subject Replacement Attribute Terminology", "type": "Code List"}, "rootItem": {"href": "/mdr/root/ct/protocolct/codelists/C185850", "title": "Version-agnostic anchor resource for codelist C185850", "type": "Root Value Domain"}, "self": {"href": "/mdr/ct/packages/protocolct-2022-09-30/codelists/C185850", "title": "CDISC Protocol Subject Replacement Attribute Terminology", "type": "Code List"}}, "conceptId": "C185850", "definition": "A terminology value set relevant to the attributes of the subject replacement.", "name": "Subject Replacement Attribute Terminology", "preferredTerm": "CDISC Protocol Subject Replacement Attribute Terminology", "submissionValue": "Subject Replacement Attribute Terminology", "synonyms": ["Subject Replacement Attribute Terminology"], "terms": [{"conceptId": "C185962", "definition": "A description of the scenario(s) that would justify subject replacement.", "preferredTerm": "Study Subject Replacement Criteria", "submissionValue": "Subject Replacement Criteria", "synonyms": ["Study Subject Replacement Criteria"]}, {"conceptId": "C185963", "definition": "A statement asserting whether subject replacement is permitted within a study.", "preferredTerm": "Study Subject Replacement Statement", "submissionValue": "Subject Replacement Statement", "synonyms": ["Study Subject Replacement Statement"]}]}