{"_links": {"parentPackage": {"href": "/mdr/ct/packages/sdtmct-2015-12-18", "title": "SDTM Controlled Terminology Package 24 Effective 2015-12-18", "type": "Terminology"}, "rootItem": {"href": "/mdr/root/ct/sdtmct/codelists/C100169", "title": "Version-agnostic anchor resource for codelist C100169", "type": "Root Value Domain"}, "self": {"href": "/mdr/ct/packages/sdtmct-2015-12-18/codelists/C100169", "title": "CDISC Questionnaire KPS Scale Test Name Terminology", "type": "Code List"}}, "conceptId": "C100169", "definition": "Karnofsky Performance Status Scale test name.", "extensible": "false", "name": "Karnofsky Performance Status Scale Test Name", "preferredTerm": "CDISC Questionnaire KPS Scale Test Name Terminology", "submissionValue": "KPS SCALE TEST", "synonyms": ["Karnofsky Performance Status Scale Test Name"], "terms": [{"conceptId": "C100417", "definition": "Karnofsky Performance Status Scale - Karnofsky Performance Status.", "preferredTerm": "KPS Scale - Karnofsky Performance Status", "submissionValue": "KPSS-Karnofsky Performance Status", "synonyms": ["KPSS-Karnofsky Performance Status"]}]}