{"_links": {"parentPackage": {"href": "/mdr/ct/packages/sdtmct-2015-12-18", "title": "SDTM Controlled Terminology Package 24 Effective 2015-12-18", "type": "Terminology"}, "rootItem": {"href": "/mdr/root/ct/sdtmct/codelists/C100170", "title": "Version-agnostic anchor resource for codelist C100170", "type": "Root Value Domain"}, "self": {"href": "/mdr/ct/packages/sdtmct-2015-12-18/codelists/C100170", "title": "CDISC Questionnaire KPS Scale Test Code Terminology", "type": "Code List"}}, "conceptId": "C100170", "definition": "Karnofsky Performance Status Scale test code.", "extensible": "false", "name": "Karnofsky Performance Status Scale Test Code", "preferredTerm": "CDISC Questionnaire KPS Scale Test Code Terminology", "submissionValue": "KPS SCALE TESTCD", "synonyms": ["Karnofsky Performance Status Scale Test Code"], "terms": [{"conceptId": "C100417", "definition": "Karnofsky Performance Status Scale - Karnofsky Performance Status.", "preferredTerm": "KPS Scale - Karnofsky Performance Status", "submissionValue": "KPSS01", "synonyms": ["KPSS-Karnofsky Performance Status"]}]}