{"_links": {"parentPackage": {"href": "/mdr/ct/packages/sdtmct-2015-12-18", "title": "SDTM Controlled Terminology Package 24 Effective 2015-12-18", "type": "Terminology"}, "priorVersion": {"href": "/mdr/ct/packages/sdtmct-2015-09-25/codelists/C101853", "title": "CDISC SDTM Cardiac Valvular Regurgitation Severity Terminology", "type": "Code List"}, "rootItem": {"href": "/mdr/root/ct/sdtmct/codelists/C101853", "title": "Version-agnostic anchor resource for codelist C101853", "type": "Root Value Domain"}, "self": {"href": "/mdr/ct/packages/sdtmct-2015-12-18/codelists/C101853", "title": "CDISC SDTM Cardiac Valvular Regurgitation Severity Terminology", "type": "Code List"}}, "conceptId": "C101853", "definition": "A terminology codelist to describe the severity of cardiac valvular regurgitation.", "extensible": "false", "name": "Cardiac Valvular Regurgitation Severity", "preferredTerm": "CDISC SDTM Cardiac Valvular Regurgitation Severity Terminology", "submissionValue": "CVLVRSEV", "synonyms": ["Cardiac Valvular Regurgitation Severity"], "terms": [{"conceptId": "C99985", "definition": "Evidence of mild retrograde blood flow through the valve(s) of the heart.", "preferredTerm": "Mild Cardiac Valve Regurgitation", "submissionValue": "MILD CARDIAC VALVE REGURGITATION"}, {"conceptId": "C99989", "definition": "Evidence of moderate retrograde blood flow through the valve(s) of the heart.", "preferredTerm": "Moderate Cardiac Valve Regurgitation", "submissionValue": "MODERATE CARDIAC VALVE REGURGITATION"}, {"conceptId": "C99991", "definition": "No evidence of any retrograde blood flow through the valve(s) in the heart.", "preferredTerm": "No Cardiac Valve Regurgitation", "submissionValue": "NO CARDIAC VALVE REGURGITATION"}, {"conceptId": "C100012", "definition": "Evidence of severe retrograde blood flow through the valve(s) of the heart.", "preferredTerm": "Severe Cardiac Valve Regurgitation", "submissionValue": "SEVERE CARDIAC VALVE REGURGITATION"}]}