{"_links": {"parentPackage": {"href": "/mdr/ct/packages/sdtmct-2015-12-18", "title": "SDTM Controlled Terminology Package 24 Effective 2015-12-18", "type": "Terminology"}, "priorVersion": {"href": "/mdr/ct/packages/sdtmct-2015-09-25/codelists/C101846", "title": "CDISC SDTM Cardiovascular Test Name Terminology", "type": "Code List"}, "rootItem": {"href": "/mdr/root/ct/sdtmct/codelists/C101846", "title": "Version-agnostic anchor resource for codelist C101846", "type": "Root Value Domain"}, "self": {"href": "/mdr/ct/packages/sdtmct-2015-12-18/codelists/C101846", "title": "CDISC SDTM Cardiovascular Test Name Terminology", "type": "Code List"}}, "conceptId": "C101846", "definition": "A terminology codelist to describe the test name for a physiological examination of the cardiovascular system.", "extensible": "true", "name": "Cardiovascular Test Name", "preferredTerm": "CDISC SDTM Cardiovascular Test Name Terminology", "submissionValue": "CVTEST", "synonyms": ["Cardiovascular Test Name"], "terms": [{"conceptId": "C122038", "definition": "The augmentation pressure divided by the aortic pulse pressure (aortic systolic minus aortic diastolic pressure) multiplied by 100, expressed as a percentage.", "preferredTerm": "Aortic Augmentation Index", "submissionValue": "Aortic Augmentation Index", "synonyms": ["Aortic Augmentation Index"]}, {"conceptId": "C122083", "definition": "The aortic augmentation index normalized to a heart rate of 75 beats per minute.", "preferredTerm": "Aortic Augmentation Index at 75bpm", "submissionValue": "Aortic Augmentation Index at 75bpm", "synonyms": ["Aortic Augmentation Index at 75bpm"]}, {"conceptId": "C122084", "definition": "The difference between the second pressure peak in the aortic wave, secondary to the pressure wave reflection from the sites of peripheral arterial impedance mismatch (P2) and the first pressure peak in the aortic wave form, secondary to ventricular ejection (P1).", "preferredTerm": "Aortic Augmentation Pressure", "submissionValue": "Aortic Augmentation Pressure", "synonyms": ["Aortic Augmentation Pressure"]}, {"conceptId": "C122085", "definition": "The first pressure peak in the aortic wave form secondary to ventricular ejection.", "preferredTerm": "Augmentation Pressure Point P1", "submissionValue": "Aortic Augmentation Pressure Peak P1", "synonyms": ["Aortic Augmentation Pressure Peak P1"]}, {"conceptId": "C122086", "definition": "The second pressure peak in the aortic waveform secondary to pressure wave reflection from the periphery.", "preferredTerm": "Augmentation Pressure Point P2", "submissionValue": "Aortic Augmentation Pressure Peak P2", "synonyms": ["Aortic Augmentation Pressure Peak P2"]}, {"conceptId": "C119245", "definition": "The measure of an individual's cardiac output divided by the individual's body surface area (CI= CO/BSA).", "preferredTerm": "Cardiac Index", "submissionValue": "Cardiac Index", "synonyms": ["Cardiac Index"]}, {"conceptId": "C119246", "definition": "The total volume of blood pumped by the heart over a set period of time, conventionally one minute; it is calculated as heart rate times stroke volume (CO= HR x SV).", "preferredTerm": "Cardiac Output", "submissionValue": "Cardiac Output", "synonyms": ["Cardiac Output"]}, {"conceptId": "C102244", "definition": "The qualitative measurement of the severity of cardiac valvular regurgitation.", "preferredTerm": "Cardiac Valvular Regurgitation Severity", "submissionValue": "Cardiac Valvular Regurgitation Severity", "synonyms": ["Cardiac Valvular Regurgitation Severity"]}, {"conceptId": "C102245", "definition": "The qualitative measurement of the severity of cardiac valvular stenosis.", "preferredTerm": "Cardiac Valvular Stenosis Severity", "submissionValue": "Cardiac Valvular Stenosis Severity", "synonyms": ["Cardiac Valvular Stenosis Severity"]}, {"conceptId": "C100086", "definition": "The pattern of the epicardial vessels supplying the posterolateral and posterior descending coronary arteries.", "preferredTerm": "Coronary Artery Dominance", "submissionValue": "Coronary Artery Dominance", "synonyms": ["Coronary Artery Dominance"]}, {"conceptId": "C122088", "definition": "The magnitude of the ejection wave that occurs when blood is ejected into the aorta by the left ventricle.", "preferredTerm": "Ejection Wave Amplitude", "submissionValue": "Ejection Wave Amplitude", "synonyms": ["Ejection Wave Amplitude"]}, {"conceptId": "C80494", "definition": "The percentage of myocardial tissue which exhibits characteristics of inadequate blood flow (ischemia).", "preferredTerm": "Ischemic Myocardium Percentage", "submissionValue": "Ischemic Myocardium Percentage", "synonyms": ["Ischemic Myocardium Percentage"]}, {"conceptId": "C99970", "definition": "The diameter across the left atrium measured at the end of systole.", "preferredTerm": "Left Atrium Dimension", "submissionValue": "Left Atrium Dimension", "synonyms": ["Left Atrium Dimension"]}, {"conceptId": "C99976", "definition": "The diameter across the ventricle at the end of diastole, excluding the thickness of the walls.", "preferredTerm": "Left Ventricle Dimension at End-Diastole", "submissionValue": "Left Ventricle Dimension, End-Diastole", "synonyms": ["Left Ventricle Dimension, End-Diastole"]}, {"conceptId": "C99977", "definition": "The diameter across the ventricle at the end of systole, excluding the thickness of the walls.", "preferredTerm": "Left Ventricular Dimension at End-Systole", "submissionValue": "Left Ventricular Dimension, End-Systole", "synonyms": ["Left Ventricular Dimension, End-Systole"]}, {"conceptId": "C99524", "definition": "The percent or fraction of the left ventricular end diastolic volume ejected in systole. The left ventricular ejection fraction is equal to the left ventricular stroke volume divided by the left ventricular end diastolic volume.", "preferredTerm": "Left Ventricular Ejection Fraction", "submissionValue": "Left Ventricular Ejection Fraction", "synonyms": ["Left Ventricular Ejection Fraction"]}, {"conceptId": "C99996", "definition": "Number of major epicardial vessels with greater than or equal to 70% reduction in diameter or greater than or equal to 50% reduction in cross-sectional area.", "preferredTerm": "Number of Diseased Coronary Artery Vessels", "submissionValue": "Number of Diseased Coronary Vessels", "synonyms": ["Number of Diseased Coronary Vessels"]}, {"conceptId": "C119247", "definition": "The resistance to blood flow through the pulmonary vasculature.", "preferredTerm": "Pulmonary Vascular Resistance", "submissionValue": "Pulmonary Vascular Resistance", "synonyms": ["Pulmonary Vascular Resistance"]}, {"conceptId": "C122087", "definition": "The distance traveled by the peak of the ventricular ejection pressure wave per unit of time.", "preferredTerm": "Pulse Wave Velocity", "submissionValue": "Pulse Wave Velocity", "synonyms": ["Pulse Wave Velocity"]}, {"conceptId": "C122089", "definition": "The reflected-to-forward pressure wave amplitude ratio. (Hashimoto J et al, J Hypertens. 2008 May;26(5):1017-24)", "preferredTerm": "Reflection Magnitude", "submissionValue": "Reflection Magnitude", "synonyms": ["Reflection Magnitude"]}, {"conceptId": "C122090", "definition": "The summation of the numerous waves being reflected by sites of impedance mismatch where central elastic arteries join more muscular arteries.", "preferredTerm": "Reflection Wave Amplitude", "submissionValue": "Reflection Wave Amplitude", "synonyms": ["Reflection Wave Amplitude"]}, {"conceptId": "C94989", "definition": "The difference in the volumes of blood between the points of maximum dilation and maximum contraction. This is the end diastolic volume minus the end systolic volume.", "preferredTerm": "Stroke Volume", "submissionValue": "Stroke Volume", "synonyms": ["Stroke Volume"]}, {"conceptId": "C119248", "definition": "The resistance to blood flow through the systemic vasculature.", "preferredTerm": "Systemic Vascular Resistance", "submissionValue": "Systemic Vascular Resistance", "synonyms": ["Systemic Vascular Resistance", "Total Peripheral Resistance"]}]}