{"_links": {"parentPackage": {"href": "/mdr/ct/packages/sdtmct-2015-12-18", "title": "SDTM Controlled Terminology Package 24 Effective 2015-12-18", "type": "Terminology"}, "rootItem": {"href": "/mdr/root/ct/sdtmct/codelists/C101817", "title": "Version-agnostic anchor resource for codelist C101817", "type": "Root Value Domain"}, "self": {"href": "/mdr/ct/packages/sdtmct-2015-12-18/codelists/C101817", "title": "CDISC Questionnaire EQ-5D-5L Test Code Terminology", "type": "Code List"}}, "conceptId": "C101817", "definition": "European Quality of Life Five Dimension Three Level Scale test code.", "extensible": "false", "name": "European Quality of Life Five Dimension Five Level Scale Test Code", "preferredTerm": "CDISC Questionnaire EQ-5D-5L Test Code Terminology", "submissionValue": "EQ-5D-5L TESTCD", "synonyms": ["European Quality of Life Five Dimension Five Level Scale Test Code"], "terms": [{"conceptId": "C102067", "definition": "European Quality of Life Five Dimension Five Level Scale - Check the one box that best describes your health today: Mobility.", "preferredTerm": "EQ-5D-5L - Mobility", "submissionValue": "EQ5D0201", "synonyms": ["EQ5D02-Mobility"]}, {"conceptId": "C102068", "definition": "European Quality of Life Five Dimension Five Level Scale - Check the one box that best describes your health today: Self-care.", "preferredTerm": "EQ-5D-5L - Self-Care", "submissionValue": "EQ5D0202", "synonyms": ["EQ5D02-Self-Care"]}, {"conceptId": "C102069", "definition": "European Quality of Life Five Dimension Five Level Scale - Check the one box that best describes your health today: Usual activities.", "preferredTerm": "EQ-5D-5L - Usual Activities", "submissionValue": "EQ5D0203", "synonyms": ["EQ5D02-Usual Activities"]}, {"conceptId": "C102070", "definition": "European Quality of Life Five Dimension Five Level Scale - Check the one box that best describes your health today: Pain/discomfort.", "preferredTerm": "EQ-5D-5L - Pain or Discomfort", "submissionValue": "EQ5D0204", "synonyms": ["EQ5D02-Pain/Discomfort"]}, {"conceptId": "C102071", "definition": "European Quality of Life Five Dimension Five Level Scale - Check the one box that best describes your health today: Anxiety/depression.", "preferredTerm": "EQ-5D-5L - Anxiety or Depression", "submissionValue": "EQ5D0205", "synonyms": ["EQ5D02-Anxiety/Depression"]}, {"conceptId": "C102072", "definition": "European Quality of Life Five Dimension Five Level Scale - Indicate how your health is today.", "preferredTerm": "EQ-5D-5L - EQ VAS Score", "submissionValue": "EQ5D0206", "synonyms": ["EQ5D02-EQ VAS Score"]}]}