{"_links": {"parentPackage": {"href": "/mdr/ct/packages/sdtmct-2015-12-18", "title": "SDTM Controlled Terminology Package 24 Effective 2015-12-18", "type": "Terminology"}, "priorVersion": {"href": "/mdr/ct/packages/sdtmct-2015-09-25/codelists/C101866", "title": "CDISC SDTM Cardiac Rhythm Device Failure Manifestation Terminology", "type": "Code List"}, "rootItem": {"href": "/mdr/root/ct/sdtmct/codelists/C101866", "title": "Version-agnostic anchor resource for codelist C101866", "type": "Root Value Domain"}, "self": {"href": "/mdr/ct/packages/sdtmct-2015-12-18/codelists/C101866", "title": "CDISC SDTM Cardiac Rhythm Device Failure Manifestation Terminology", "type": "Code List"}}, "conceptId": "C101866", "definition": "The effect that a cardiac rhythm device malfunction had on the ability to stimulate the heart.", "extensible": "true", "name": "Cardiac Rhythm Device Failure Manifestation", "preferredTerm": "CDISC SDTM Cardiac Rhythm Device Failure Manifestation Terminology", "submissionValue": "CRYDFMAN", "synonyms": ["Cardiac Rhythm Device Failure Manifestation"], "terms": [{"conceptId": "C99921", "definition": "The cardiac rhythm device malfunction affected atrial pacing.", "preferredTerm": "Cardiac Atrial Pacing Malfunction", "submissionValue": "ATRIAL PACING MALFUNCTION"}, {"conceptId": "C99923", "definition": "The cardiac rhythm device malfunction affected the defibrillator.", "preferredTerm": "Cardiac Defibrillator Malfunction", "submissionValue": "DEFIBRILLATION MALFUNCTION"}, {"conceptId": "C99973", "definition": "The cardiac rhythm device malfunction affected the left ventricular (LV) pacing.", "preferredTerm": "Left Cardiac Ventricular Pacing Malfunction", "submissionValue": "LEFT VENTRICULAR PACING MALFUNCTION"}, {"conceptId": "C100011", "definition": "The cardiac rhythm device malfunction affected the right ventricular (RV) pacing.", "preferredTerm": "Right Cardiac Ventricle Pacing Malfunction", "submissionValue": "RIGHT VENTRICULAR PACING MALFUNCTION"}]}