{"_links": {"parentPackage": {"href": "/mdr/ct/packages/sdtmct-2015-12-18", "title": "SDTM Controlled Terminology Package 24 Effective 2015-12-18", "type": "Terminology"}, "rootItem": {"href": "/mdr/root/ct/sdtmct/codelists/C101815", "title": "Version-agnostic anchor resource for codelist C101815", "type": "Root Value Domain"}, "self": {"href": "/mdr/ct/packages/sdtmct-2015-12-18/codelists/C101815", "title": "CDISC Questionnaire ECOG Test Code Terminology", "type": "Code List"}}, "conceptId": "C101815", "definition": "Eastern Cooperative Oncology Group Performance Status test code.", "extensible": "false", "name": "Eastern Cooperative Oncology Group Performance Status Test Code", "preferredTerm": "CDISC Questionnaire ECOG Test Code Terminology", "submissionValue": "ECOG TESTCD", "synonyms": ["Eastern Cooperative Oncology Group Performance Status Test Code"], "terms": [{"conceptId": "C102408", "definition": "ECOG Performance Status - Performance Status.", "preferredTerm": "ECOG - Performance Status", "submissionValue": "ECOG101", "synonyms": ["ECOG1-Performance Status"]}]}