{"_links": {"parentPackage": {"href": "/mdr/ct/packages/sdtmct-2015-12-18", "title": "SDTM Controlled Terminology Package 24 Effective 2015-12-18", "type": "Terminology"}, "rootItem": {"href": "/mdr/root/ct/sdtmct/codelists/C101816", "title": "Version-agnostic anchor resource for codelist C101816", "type": "Root Value Domain"}, "self": {"href": "/mdr/ct/packages/sdtmct-2015-12-18/codelists/C101816", "title": "CDISC Questionnaire ECOG Test Name Terminology", "type": "Code List"}}, "conceptId": "C101816", "definition": "Eastern Cooperative Oncology Group Performance Status test name.", "extensible": "false", "name": "Eastern Cooperative Oncology Group Performance Status Test Name", "preferredTerm": "CDISC Questionnaire ECOG Test Name Terminology", "submissionValue": "ECOG TEST", "synonyms": ["Eastern Cooperative Oncology Group Performance Status Test Name"], "terms": [{"conceptId": "C102408", "definition": "ECOG Performance Status - Performance Status.", "preferredTerm": "ECOG - Performance Status", "submissionValue": "ECOG1-Performance Status", "synonyms": ["ECOG1-Performance Status"]}]}