{"_links": {"parentPackage": {"href": "/mdr/ct/packages/sdtmct-2015-12-18", "title": "SDTM Controlled Terminology Package 24 Effective 2015-12-18", "type": "Terminology"}, "rootItem": {"href": "/mdr/root/ct/sdtmct/codelists/C103478", "title": "Version-agnostic anchor resource for codelist C103478", "type": "Root Value Domain"}, "self": {"href": "/mdr/ct/packages/sdtmct-2015-12-18/codelists/C103478", "title": "CDISC Questionnaire ODI v2.1a Test Name Terminology", "type": "Code List"}}, "conceptId": "C103478", "definition": "The Oswestry Disability Index Version 2.1a test name.", "extensible": "false", "name": "The Oswestry Disability Index Version 2.1a Questionnaire Test Name", "preferredTerm": "CDISC Questionnaire ODI v2.1a Test Name Terminology", "submissionValue": "ODI V2.1A TEST", "synonyms": ["The Oswestry Disability Index Version 2.1a Questionnaire Test Name"], "terms": [{"conceptId": "C103764", "definition": "The Oswestry Disability Index Version 2.1a - Section 3 - Lifting.", "preferredTerm": "ODI v2.1a - Lifting", "submissionValue": "ODI01-Lifting", "synonyms": ["ODI01-Lifting"]}, {"conceptId": "C103762", "definition": "The Oswestry Disability Index Version 2.1a - Section 1 - Pain intensity.", "preferredTerm": "ODI v2.1a - Pain Intensity", "submissionValue": "ODI01-Pain Intensity", "synonyms": ["ODI01-Pain Intensity"]}, {"conceptId": "C103763", "definition": "The Oswestry Disability Index Version 2.1a - Section 2 - Personal care (washing, dressing, etc.).", "preferredTerm": "ODI v2.1a - Personal Care", "submissionValue": "ODI01-Personal Care", "synonyms": ["ODI01-Personal Care"]}, {"conceptId": "C103769", "definition": "The Oswestry Disability Index Version 2.1a - Section 8 - Sex life (if applicable).", "preferredTerm": "ODI v2.1a - Sex Life", "submissionValue": "ODI01-Sex Life", "synonyms": ["ODI01-Sex Life"]}, {"conceptId": "C103766", "definition": "The Oswestry Disability Index Version 2.1a - Section 5 - Sitting.", "preferredTerm": "ODI v2.1a - Sitting", "submissionValue": "ODI01-Sitting", "synonyms": ["ODI01-Sitting"]}, {"conceptId": "C103768", "definition": "The Oswestry Disability Index Version 2.1a - Section 7 - Sleeping.", "preferredTerm": "ODI v2.1a - Sleeping", "submissionValue": "ODI01-Sleeping", "synonyms": ["ODI01-Sleeping"]}, {"conceptId": "C103770", "definition": "The Oswestry Disability Index Version 2.1a - Section 9 - Social life.", "preferredTerm": "ODI v2.1a - Social Life", "submissionValue": "ODI01-Social Life", "synonyms": ["ODI01-Social Life"]}, {"conceptId": "C103767", "definition": "The Oswestry Disability Index Version 2.1a - Section 6 - Standing.", "preferredTerm": "ODI v2.1a - Standing", "submissionValue": "ODI01-Standing", "synonyms": ["ODI01-Standing"]}, {"conceptId": "C103771", "definition": "The Oswestry Disability Index Version 2.1a - Section 10 - Travelling.", "preferredTerm": "ODI v2.1a - Travelling", "submissionValue": "ODI01-Travelling", "synonyms": ["ODI01-Travelling"]}, {"conceptId": "C103765", "definition": "The Oswestry Disability Index Version 2.1a - Section 4 - Walking.", "preferredTerm": "ODI v2.1a - Walking", "submissionValue": "ODI01-Walking", "synonyms": ["ODI01-Walking"]}]}