{"_links": {"parentPackage": {"href": "/mdr/ct/packages/sdtmct-2015-12-18", "title": "SDTM Controlled Terminology Package 24 Effective 2015-12-18", "type": "Terminology"}, "rootItem": {"href": "/mdr/root/ct/sdtmct/codelists/C111336", "title": "Version-agnostic anchor resource for codelist C111336", "type": "Root Value Domain"}, "self": {"href": "/mdr/ct/packages/sdtmct-2015-12-18/codelists/C111336", "title": "CDISC Questionnaire C-SSRS Children's Baseline Test Code Terminology", "type": "Code List"}}, "conceptId": "C111336", "definition": "Columbia-Suicide Severity Rating Scale Children's Baseline test code.", "extensible": "false", "name": "Columbia-Suicide Severity Rating Scale Children's Baseline Questionnaire Test Code", "preferredTerm": "CDISC Questionnaire C-SSRS Children's Baseline Test Code Terminology", "submissionValue": "C-SSRS CHILDREN'S BASELINE TESTCD", "synonyms": ["Columbia-Suicide Severity Rating Scale Children's Baseline Questionnaire Test Code"], "terms": [{"conceptId": "C111527", "definition": "Columbia-Suicide Severity Rating Scale Children's Baseline - Have you thought about being dead or what it would be like to be dead? Have you wished you were dead or wished you could go to sleep and never wake up? Do you ever wish you weren't alive anymore?", "preferredTerm": "C-SSRS Children's Baseline - Wish to be Dead", "submissionValue": "CSS0601", "synonyms": ["CSS06-Wish to be Dead"]}, {"conceptId": "C111528", "definition": "Columbia-Suicide Severity Rating Scale Children's Baseline - Description of wishing to be dead.", "preferredTerm": "C-SSRS Children's Baseline - Description of Wish to be Dead", "submissionValue": "CSS0601A", "synonyms": ["CSS06-Wish to be Dead, Describe"]}, {"conceptId": "C111529", "definition": "Columbia-Suicide Severity Rating Scale Children's Baseline - Have you thought about doing something to make yourself not alive anymore? Have you had any thoughts about killing yourself?", "preferredTerm": "C-SSRS Children's Baseline - Non-Specific Active Suicidal Thoughts", "submissionValue": "CSS0602", "synonyms": ["CSS06-Non-Specific Suicidal Thought"]}, {"conceptId": "C111530", "definition": "Columbia-Suicide Severity Rating Scale Children's Baseline - Description of non-specific active suicidal thoughts.", "preferredTerm": "C-SSRS Children's Baseline - Description of Non-Specific Active Suicidal Thoughts", "submissionValue": "CSS0602A", "synonyms": ["CSS06-Non-Specific Suicid Thought, Descr"]}, {"conceptId": "C111531", "definition": "Columbia-Suicide Severity Rating Scale Children's Baseline - Have you thought about how you would do that or how you would make yourself not alive anymore (kill yourself)? What did you think about?", "preferredTerm": "C-SSRS Children's Baseline - Active Suicidal Ideation with Any Methods (Not Plan) without Intent to Act", "submissionValue": "CSS0603", "synonyms": ["CSS06-Idea, No Intent, No Plan"]}, {"conceptId": "C111532", "definition": "Columbia-Suicide Severity Rating Scale Children's Baseline - Description of active suicidal ideation with any methods (not plan) without intent to act.", "preferredTerm": "C-SSRS Children's Baseline - Description of Active Suicidal Ideation with Any Methods (Not Plan) without Intent to Act", "submissionValue": "CSS0603A", "synonyms": ["CSS06-Idea, No Intent, No Plan, Describe"]}, {"conceptId": "C111533", "definition": "Columbia-Suicide Severity Rating Scale Children's Baseline - When you thought about making yourself not alive anymore (or killing yourself), did you think that this was something you might actually do? This is different from (as opposed to) having the thoughts but knowing you wouldn't do anything about it.", "preferredTerm": "C-SSRS Children's Baseline - Active Suicidal Ideation with Some Intent to Act, without Specific Plan", "submissionValue": "CSS0604", "synonyms": ["CSS06-Ideation With Intent, No Plan"]}, {"conceptId": "C111534", "definition": "Columbia-Suicide Severity Rating Scale Children's Baseline - Description of active suicidal ideation with some intent to act, without specific plan.", "preferredTerm": "C-SSRS Children's Baseline - Description of Active Suicidal Ideation with Some Intent to Act, without Specific Plan", "submissionValue": "CSS0604A", "synonyms": ["CSS06-Ideation With Intent No Plan Descr"]}, {"conceptId": "C111535", "definition": "Columbia-Suicide Severity Rating Scale Children's Baseline - Have you ever decided how or when you would make yourself not alive anymore/kill yourself? Have you ever planned out (worked out the details of) how you would do it? What was your plan? When you made this plan (or worked out these details), was any part of you thinking about actually doing it?", "preferredTerm": "C-SSRS Children's Baseline - Active Suicidal Ideation with Specific Plan and Intent", "submissionValue": "CSS0605", "synonyms": ["CSS06-Ideation With Plan/Intent"]}, {"conceptId": "C111536", "definition": "Columbia-Suicide Severity Rating Scale Children's Baseline - Description of active suicidal ideation with specific plan and intent.", "preferredTerm": "C-SSRS Children's Baseline - Description of Active Suicidal Ideation with Specific Plan and Intent", "submissionValue": "CSS0605A", "synonyms": ["CSS06-Ideation With Plan/Intent, Descr"]}, {"conceptId": "C111537", "definition": "Columbia-Suicide Severity Rating Scale Children's Baseline - Most severe ideation.", "preferredTerm": "C-SSRS Children's Baseline - Most Severe Ideation", "submissionValue": "CSS0606", "synonyms": ["CSS06-Most Severe Ideation"]}, {"conceptId": "C111538", "definition": "Columbia-Suicide Severity Rating Scale Children's Baseline - Description of most severe ideation.", "preferredTerm": "C-SSRS Children's Baseline - Describe Most Severe Ideation", "submissionValue": "CSS0606A", "synonyms": ["CSS06-Most Severe Ideation, Description"]}, {"conceptId": "C111539", "definition": "Columbia-Suicide Severity Rating Scale Children's Baseline - How many times have you had these thoughts?", "preferredTerm": "C-SSRS Children's Baseline - Frequency of Most Severe Ideation", "submissionValue": "CSS0607", "synonyms": ["CSS06-Most Severe Ideation, Frequency"]}, {"conceptId": "C111540", "definition": "Columbia-Suicide Severity Rating Scale Children's Baseline - Frequency, write response.", "preferredTerm": "C-SSRS Children's Baseline - Frequency, Write Response", "submissionValue": "CSS0607A", "synonyms": ["CSS06-Frequency, Write Response"]}, {"conceptId": "C111541", "definition": "Columbia-Suicide Severity Rating Scale Children's Baseline - Did you ever do anything to try to kill yourself or make yourself not alive anymore? What did you do? Did you ever hurt yourself on purpose? Why did you do that?", "preferredTerm": "C-SSRS Children's Baseline - Actual Suicide Attempt", "submissionValue": "CSS0608", "synonyms": ["CSS06-Actual Attempt"]}, {"conceptId": "C111542", "definition": "Columbia-Suicide Severity Rating Scale Children's Baseline - Total number of actual attempts.", "preferredTerm": "C-SSRS Children's Baseline - Number of Actual Suicide Attempts", "submissionValue": "CSS0609", "synonyms": ["CSS06-Number of Actual Attempts"]}, {"conceptId": "C111543", "definition": "Columbia-Suicide Severity Rating Scale Children's Baseline - Description of actual attempt.", "preferredTerm": "C-SSRS Children's Baseline - Description of Actual Suicide Attempt", "submissionValue": "CSS0609A", "synonyms": ["CSS06-Actual Attempt, Describe"]}, {"conceptId": "C111544", "definition": "Columbia-Suicide Severity Rating Scale Children's Baseline - Has subject engaged in non-suicidal self-injurious behavior?", "preferredTerm": "C-SSRS Children's Baseline - Non-suicidal Self-injurious Behavior", "submissionValue": "CSS0610", "synonyms": ["CSS06-Non-suicidal Self-injurious Behav"]}, {"conceptId": "C111545", "definition": "Columbia-Suicide Severity Rating Scale Children's Baseline - Has subject engaged in self-injurious behavior, intent unknown?", "preferredTerm": "C-SSRS Children's Baseline - Self-injurious Behavior, Intent Unknown", "submissionValue": "CSS0611", "synonyms": ["CSS06-Self-injur Behav, Intent Unknown"]}, {"conceptId": "C111546", "definition": "Columbia-Suicide Severity Rating Scale Children's Baseline - Has there been a time when you started to do something to make yourself not alive anymore (end your life or kill yourself) but someone or something stopped you before you actually did anything? What did you do?", "preferredTerm": "C-SSRS Children's Baseline - Interrupted Suicide Attempt", "submissionValue": "CSS0612", "synonyms": ["CSS06-Interrupted Attempt"]}, {"conceptId": "C111547", "definition": "Columbia-Suicide Severity Rating Scale Children's Baseline - Total number of interrupted attempts.", "preferredTerm": "C-SSRS Children's Baseline - Number of Interrupted Suicide Attempts", "submissionValue": "CSS0613", "synonyms": ["CSS06-Number of Interrupt Attempts"]}, {"conceptId": "C111548", "definition": "Columbia-Suicide Severity Rating Scale Children's Baseline - Description of interrupted attempt.", "preferredTerm": "C-SSRS Children's Baseline - Description of Interrupted Suicide Attempt", "submissionValue": "CSS0613A", "synonyms": ["CSS06-Interrupted Attempt, Describe"]}, {"conceptId": "C111549", "definition": "Columbia-Suicide Severity Rating Scale Children's Baseline - Has there been a time when you started to do something to make yourself not alive anymore (end your life or kill yourself) but you changed your mind (stopped yourself) before you actually did anything? What did you do?", "preferredTerm": "C-SSRS Children's Baseline - Aborted Suicide Attempt", "submissionValue": "CSS0614", "synonyms": ["CSS06-Aborted Attempt"]}, {"conceptId": "C111550", "definition": "Columbia-Suicide Severity Rating Scale Children's Baseline - Total number of aborted attempts.", "preferredTerm": "C-SSRS Children's Baseline - Number of Aborted Suicide Attempts", "submissionValue": "CSS0615", "synonyms": ["CSS06-Number of Aborted Attempts"]}, {"conceptId": "C111551", "definition": "Columbia-Suicide Severity Rating Scale Children's Baseline - Description of aborted attempt.", "preferredTerm": "C-SSRS Children's Baseline - Description of Aborted Suicide Attempt", "submissionValue": "CSS0615A", "synonyms": ["CSS06-Aborted Attempt, Describe"]}, {"conceptId": "C111552", "definition": "Columbia-Suicide Severity Rating Scale Children's Baseline - Have you done anything to get ready to make yourself not alive anymore (to end your life or kill yourself) - like giving things away, writing a goodbye note, getting things you need to kill yourself?", "preferredTerm": "C-SSRS Children's Baseline - Preparatory Acts or Behaviors Toward Suicide Attempt", "submissionValue": "CSS0616", "synonyms": ["CSS06-Preparatory Acts/Behavior"]}, {"conceptId": "C111553", "definition": "Columbia-Suicide Severity Rating Scale Children's Baseline - Description of preparatory acts or behavior.", "preferredTerm": "C-SSRS Children's Baseline - Description of Preparatory Acts or Behaviors Toward Suicide Attempt", "submissionValue": "CSS0616A", "synonyms": ["CSS06-Preparatory Acts/Behavior, Descr"]}, {"conceptId": "C111554", "definition": "Columbia-Suicide Severity Rating Scale Children's Baseline - Suicidal behavior was present during the assessment period?", "preferredTerm": "C-SSRS Children's Baseline - Suicidal Behavior", "submissionValue": "CSS0617", "synonyms": ["CSS06-Suicidal Behavior"]}, {"conceptId": "C111555", "definition": "Columbia-Suicide Severity Rating Scale Children's Baseline - Most recent attempt date.", "preferredTerm": "C-SSRS Children's Baseline - Most Recent Suicide Attempt Date", "submissionValue": "CSS0618A", "synonyms": ["CSS06-Most Recent Attempt Date"]}, {"conceptId": "C111556", "definition": "Columbia-Suicide Severity Rating Scale Children's Baseline - Most recent attempt actual lethality/medical damage.", "preferredTerm": "C-SSRS Children's Baseline - Most Recent Suicide Attempt Actual Lethality/Medical Damage", "submissionValue": "CSS0618B", "synonyms": ["CSS06-Most Recent Attempt Damage"]}, {"conceptId": "C111557", "definition": "Columbia-Suicide Severity Rating Scale Children's Baseline - Most recent attempt potential lethality.", "preferredTerm": "C-SSRS Children's Baseline - Most Recent Suicide Attempt Potential Lethality", "submissionValue": "CSS0618C", "synonyms": ["CSS06-Most Recent Attempt Potential"]}, {"conceptId": "C111558", "definition": "Columbia-Suicide Severity Rating Scale Children's Baseline - Most lethal attempt date.", "preferredTerm": "C-SSRS Children's Baseline - Most Lethal Suicide Attempt Date", "submissionValue": "CSS0619A", "synonyms": ["CSS06-Most Lethal Attempt Date"]}, {"conceptId": "C111559", "definition": "Columbia-Suicide Severity Rating Scale Children's Baseline - Most lethal attempt actual lethality/medical damage.", "preferredTerm": "C-SSRS Children's Baseline - Most Lethal Suicide Attempt Actual Lethality/Medical Damage", "submissionValue": "CSS0619B", "synonyms": ["CSS06-Most Lethal Attempt Damage"]}, {"conceptId": "C111560", "definition": "Columbia-Suicide Severity Rating Scale Children's Baseline - Most lethal attempt potential lethality.", "preferredTerm": "C-SSRS Children's Baseline - Most Lethal Suicide Attempt Potential Lethality", "submissionValue": "CSS0619C", "synonyms": ["CSS06-Most Lethal Attempt Potential"]}, {"conceptId": "C111561", "definition": "Columbia-Suicide Severity Rating Scale Children's Baseline - Initial/first attempt date.", "preferredTerm": "C-SSRS Children's Baseline - First Suicide Attempt Date", "submissionValue": "CSS0620A", "synonyms": ["CSS06-First Attempt Date"]}, {"conceptId": "C111562", "definition": "Columbia-Suicide Severity Rating Scale Children's Baseline - Initial/first attempt actual lethality/medical damage.", "preferredTerm": "C-SSRS Children's Baseline - First Suicide Attempt Actual Lethality/Medical Damage", "submissionValue": "CSS0620B", "synonyms": ["CSS06-First Attempt Damage"]}, {"conceptId": "C111563", "definition": "Columbia-Suicide Severity Rating Scale Children's Baseline - Initial/first attempt potential lethality.", "preferredTerm": "C-SSRS Children's Baseline - First Suicide Attempt Potential Lethality", "submissionValue": "CSS0620C", "synonyms": ["CSS06-First Attempt Potential"]}]}