{"_links": {"parentPackage": {"href": "/mdr/ct/packages/sdtmct-2015-12-18", "title": "SDTM Controlled Terminology Package 24 Effective 2015-12-18", "type": "Terminology"}, "priorVersion": {"href": "/mdr/ct/packages/sdtmct-2015-09-25/codelists/C111106", "title": "CDISC SDTM Respiratory Test Code Terminology", "type": "Code List"}, "rootItem": {"href": "/mdr/root/ct/sdtmct/codelists/C111106", "title": "Version-agnostic anchor resource for codelist C111106", "type": "Root Value Domain"}, "self": {"href": "/mdr/ct/packages/sdtmct-2015-12-18/codelists/C111106", "title": "CDISC SDTM Respiratory Test Code Terminology", "type": "Code List"}}, "conceptId": "C111106", "definition": "A terminology codelist based on the test codes for physiological findings related to the respiratory system, including the organs that are involved in breathing such as the nose, throat, larynx, trachea, bronchi and lungs.", "extensible": "true", "name": "Respiratory Test Code", "preferredTerm": "CDISC SDTM Respiratory Test Code Terminology", "submissionValue": "RETESTCD", "synonyms": ["Respiratory Test Code"], "terms": [{"conceptId": "C38083", "definition": "The volume of the carbon monoxide that is transferred from inspired air into the pulmonary capillary blood.", "preferredTerm": "Carbon Monoxide Diffusing Capability Test", "submissionValue": "DLCO", "synonyms": ["Diffusion Capacity of Lung for CO"]}, {"conceptId": "C120825", "definition": "The diffusing capacity of the lungs for carbon monoxide adjusted for hemoglobin concentration.", "preferredTerm": "Hemoglobin Corrected Diffusion Capacity of the Lung for Carbon Monoxide", "submissionValue": "DLCOHC", "synonyms": ["DLCO Corrected for Hemoglobin", "HGB Corrected DLCO"]}, {"conceptId": "C120826", "definition": "The diffusing capacity of the lungs for carbon monoxide expressed as a proportion of the predicted normal value, adjusted for hemoglobin concentration.", "preferredTerm": "Percent Predicted Hemoglobin Corrected Diffusion Capacity of the Lung for Carbon Monoxide", "submissionValue": "DLCOHCPP", "synonyms": ["Percent Predicted HGB Corrected DLCO"]}, {"conceptId": "C120827", "definition": "The diffusing capacity of the lungs for carbon monoxide expressed as a proportion of the alveolar volume, adjusted for hemoglobin concentration.", "preferredTerm": "Hemoglobin Corrected Diffusion Capacity of the Lung for Carbon Monoxide/Alveolar Volume Ratio", "submissionValue": "DLCOHCVA", "synonyms": ["DLCO/VA Corrected for Hemoglobin", "HGB Corrected DLCO/VA"]}, {"conceptId": "C120828", "definition": "The proportion of diffusing capacity of the lungs for carbon monoxide to the alveolar volume expressed as a proportion of the predicted normal value, adjusted for hemoglobin concentration.", "preferredTerm": "Percent Predicted Hemoglobin Corrected Diffusion Capacity of the Lung for Carbon Monoxide/Alveolar Volume Ratio", "submissionValue": "DLCOHVAP", "synonyms": ["Percent Predicted HGB Corrected DLCO/VA"]}, {"conceptId": "C123564", "definition": "The mean volume of the carbon monoxide that is transferred from inspired air into the pulmonary capillary blood.", "preferredTerm": "Mean Carbon Monoxide Diffusing Capability Test", "submissionValue": "DLCOM", "synonyms": ["Mean Diffusion Capacity of Lung for CO"]}, {"conceptId": "C120829", "definition": "The diffusing capacity of the lungs for carbon monoxide expressed as a proportion of the predicted normal value.", "preferredTerm": "Percent Predicted Diffusion Capacity of the Lung for Carbon Monoxide", "submissionValue": "DLCOPP", "synonyms": ["Percent Predicted DLCO"]}, {"conceptId": "C120830", "definition": "The diffusing capacity of the lungs for carbon monoxide expressed as a proportion of the alveolar volume.", "preferredTerm": "Diffusion Capacity of the Lung for Carbon Monoxide/Alveolar Volume Ratio", "submissionValue": "DLCOVA", "synonyms": ["DLCO/VA"]}, {"conceptId": "C120831", "definition": "The proportion of the diffusing capacity of the lungs for carbon monoxide to alveolar volume, expressed as a proportion of the predicted normal value.", "preferredTerm": "Percent Predicted Diffusion Capacity of the Lung for Carbon Monoxide/Alveolar Volume Ratio", "submissionValue": "DLCOVAPP", "synonyms": ["Percent Predicted DLCO/VA"]}, {"conceptId": "C111200", "definition": "The maximum volume of air a subject can exhale from the lungs after a tidal exhalation.", "preferredTerm": "Expiratory Reserve Volume", "submissionValue": "ERV", "synonyms": ["Expiratory Reserve Volume"]}, {"conceptId": "C112375", "definition": "The maximum volume of air a subject can exhale from the lungs after a tidal exhalation as a proportion of the predicted normal value.", "preferredTerm": "Percent Predicted Expiratory Reserve Volume", "submissionValue": "ERVPP", "synonyms": ["Percent Predicted ERV"]}, {"conceptId": "C119545", "definition": "The mean forced expiratory flow rate at 25-75% of the forced vital capacity. (NCI)", "preferredTerm": "Forced Expiratory Flow at 25-75 Percent", "submissionValue": "FEF2575", "synonyms": ["Forced Expiratory Flow 25-75%"]}, {"conceptId": "C119546", "definition": "The mean forced expiratory flow rate at 25-75% of the forced vital capacity as a proportion of the predicted normal value. (NCI)", "preferredTerm": "Percent Predicted Forced Expiratory Flow at 25-75 Percent", "submissionValue": "FEF2575P", "synonyms": ["Percent Predicted FEF25-75"]}, {"conceptId": "C38084", "definition": "The volume of air that can be forcibly exhaled during the first second following maximal inhalation.", "preferredTerm": "Forced Expiratory Volume in 1 Second", "submissionValue": "FEV1", "synonyms": ["Forced Expiratory Volume in 1 Second"]}, {"conceptId": "C111359", "definition": "The ratio of the forced expiratory volume during the first second of exhalation to the largest observed expired volume during a forced vital capacity maneuver.", "preferredTerm": "Forced Expiratory Volume in 1 Second to Forced Vital Capacity Ratio Measurement", "submissionValue": "FEV1FVC", "synonyms": ["FEV1/FVC"]}, {"conceptId": "C123565", "definition": "The ratio of the forced expiratory volume during the first second of exhalation to the largest observed expired volume during the first six seconds of a forced vital capacity maneuver.", "preferredTerm": "Forced Expiratory Volume in 1 Second to Forced Vital Capacity in 6 Seconds", "submissionValue": "FEV1FVC6", "synonyms": ["FEV1/FVC6"]}, {"conceptId": "C112377", "definition": "The proportion of total forced vital capacity that is expelled during the first second of a forced exhalation as a proportion of the predicted normal value.", "preferredTerm": "Percent Predicted Forced Expiratory Volume in 1 Second Divided by Forced Vital Capacity", "submissionValue": "FEV1FVCP", "synonyms": ["Percent Predicted FEV1/FVC"]}, {"conceptId": "C112376", "definition": "Forced expiratory volume in one second as a proportion of the predicted normal value.", "preferredTerm": "Percent Predicted Forced Expiratory Volume in 1 Second", "submissionValue": "FEV1PP", "synonyms": ["Percent Predicted FEV1"]}, {"conceptId": "C112285", "definition": "The change in FEV1 following administration of a bronchodilator relative to the pre-treatment FEV1 value.", "preferredTerm": "Forced Expiratory Volume in 1 Second Reversibility", "submissionValue": "FEV1REV", "synonyms": ["FEV1 Reversibility"]}, {"conceptId": "C47843", "definition": "The volume of air that a subject can breathe out during the first 6 seconds of exhalation after maximum inhalation.", "preferredTerm": "Forced Expiratory Volume in 6 Seconds", "submissionValue": "FEV6", "synonyms": ["Forced Expiratory Volume in 6 Seconds"]}, {"conceptId": "C112378", "definition": "Forced expiratory volume in six seconds as a proportion of the predicted normal value.", "preferredTerm": "Percent Predicted Forced Expiratory Volume in 6 Seconds", "submissionValue": "FEV6PP", "synonyms": ["Percent Predicted FEV6"]}, {"conceptId": "C124418", "definition": "The forced inspiratory flow rate at the point on the inspiratory flow-volume curve where 25 percent of the total volume of air has been inhaled.", "preferredTerm": "Forced Inspiratory Flow at 25%", "submissionValue": "FIF25", "synonyms": ["Forced Inspiratory Flow at 25%"]}, {"conceptId": "C124419", "definition": "The forced inspiratory flow rate at the point on the inspiratory flow-volume curve where 50 percent of the total volume of air has been inhaled.", "preferredTerm": "Forced Inspiratory Flow at 50%", "submissionValue": "FIF50", "synonyms": ["Forced Inspiratory Flow at 50%"]}, {"conceptId": "C124420", "definition": "The forced inspiratory flow rate at the point on the inspiratory flow-volume curve where 75 percent of the total volume of air has been inhaled.", "preferredTerm": "Forced Inspiratory Flow at 75%", "submissionValue": "FIF75", "synonyms": ["Forced Inspiratory Flow at 75%"]}, {"conceptId": "C112333", "definition": "The fastest rate of inspired air achieved during a forced inspiration maneuver.", "preferredTerm": "Maximum Forced Inspiratory Flow", "submissionValue": "FIFMAX", "synonyms": ["Maximum Forced Inspiratory Flow"]}, {"conceptId": "C112379", "definition": "The fastest rate of inspired air achieved during a forced inspiration maneuver expressed as a percentage of the expected result value for healthy individuals with similar characteristics.", "preferredTerm": "Percent Predicted Forced Inspiratory Flow Maximum", "submissionValue": "FIFMAXPP", "synonyms": ["Percent Predicted FIFmax"]}, {"conceptId": "C111360", "definition": "The volume of air that a subject can breathe in during the first second of inhalation after maximum exhalation.", "preferredTerm": "Forced Inspiratory Volume in 1 Second", "submissionValue": "FIV1", "synonyms": ["Forced Inspiratory Volume in 1 Second"]}, {"conceptId": "C112380", "definition": "The volume of air that a subject can breathe in during the first second of inhalation after maximum exhalation as a proportion of the predicted normal value.", "preferredTerm": "Percent Predicted Forced Inspiratory Volume in 1 Second", "submissionValue": "FIV1PP", "synonyms": ["Percent Predicted FIV1"]}, {"conceptId": "C89800", "definition": "The volume of air remaining in the lungs after a normal exhalation. (NCI)", "preferredTerm": "Functional Residual Capacity", "submissionValue": "FRC", "synonyms": ["Functional Residual Capacity"]}, {"conceptId": "C111361", "definition": "The volume of air that can be forcibly exhaled following maximal inhalation.", "preferredTerm": "Forced Vital Capacity", "submissionValue": "FVC", "synonyms": ["Forced Vital Capacity"]}, {"conceptId": "C124421", "definition": "The volume of air that can be forcibly exhaled during the first six seconds following maximal inhalation.", "preferredTerm": "Forced Vital Capacity in 6 Seconds", "submissionValue": "FVC6", "synonyms": ["Forced Vital Capacity in 6 Seconds"]}, {"conceptId": "C112381", "definition": "Forced vital capacity as a proportion of the predicted normal value.", "preferredTerm": "Percent Predicted Forced Vital Capacity", "submissionValue": "FVCPP", "synonyms": ["Percent Predicted Forced Vital Capacity"]}, {"conceptId": "C124422", "definition": "The instantaneous rate of air flow in the airway, expressed as the pressure difference between any given part of the airway and the alveoli; it is the reciprocal of airway resistance (Raw).", "preferredTerm": "Airway Conductance", "submissionValue": "GAW", "synonyms": ["Airway Conductance"]}, {"conceptId": "C111362", "definition": "The maximum volume of air a subject can inhale into the lungs after a tidal exhalation (IRV plus TV).", "preferredTerm": "Inspiratory Capacity", "submissionValue": "IC", "synonyms": ["Inspiratory Capacity"]}, {"conceptId": "C112382", "definition": "The maximum volume of air a subject can inhale into the lungs after a tidal exhalation (IRV plus TV) as a proportion of the predicted normal value.", "preferredTerm": "Percent Predicted Inspiratory Capacity", "submissionValue": "ICPP", "synonyms": ["Percent Predicted Inspiratory Capacity"]}, {"conceptId": "C112321", "definition": "The change in IC following administration of a bronchodilator relative to the pre-treatment IC value.", "preferredTerm": "Inspiratory Capacity Reversibility", "submissionValue": "ICREV", "synonyms": ["IC Reversibility"]}, {"conceptId": "C111237", "definition": "The maximum volume of air a subject can inhale into the lungs after a tidal inhalation.", "preferredTerm": "Inspiratory Reserve Volume", "submissionValue": "IRV", "synonyms": ["Inspiratory Reserve Volume"]}, {"conceptId": "C112383", "definition": "The maximum volume of air a subject can inhale into the lungs after a tidal inhalation as a proportion of the predicted normal value.", "preferredTerm": "Percent Predicted Inspiratory Reserve Volume", "submissionValue": "IRVPP", "synonyms": ["Percent Predicted IRV"]}, {"conceptId": "C124423", "definition": "The maximum volume of air an individual can inhale from the point of maximal exhalation.", "preferredTerm": "Inspiratory Vital Capacity", "submissionValue": "IVC", "synonyms": ["Inspiratory Vital Capacity"]}, {"conceptId": "C124424", "definition": "The maximum volume of air an individual can inhale from the point of maximal exhalation as a percentage of the predicted normal value.", "preferredTerm": "Percent Predicted Inspiratory Vital Capacity", "submissionValue": "IVCPP", "synonyms": ["Percent Predicted IVC"]}, {"conceptId": "C124425", "definition": "A representative measurement of the number of times the volume of air in the lung at the start of the washout (the Functional Residual Capacity) must be recycled to eliminate the tracer to the pre-defined endpoint.", "preferredTerm": "Lung Clearance Index", "submissionValue": "LCI", "synonyms": ["Lung Clearance Index"]}, {"conceptId": "C123566", "definition": "The volume of oxygen per heartbeat consumed by the body while at rest.", "preferredTerm": "Oxygen Pulse", "submissionValue": "OXYPULSE", "synonyms": ["Oxygen Pulse"]}, {"conceptId": "C41372", "definition": "The maximal flow achieved during the maximally forced expiration initiated at maximum inhalation.", "preferredTerm": "Peak Expiratory Flow", "submissionValue": "PEF", "synonyms": ["Peak Expiratory Flow"]}, {"conceptId": "C112384", "definition": "The maximal flow achieved during the maximally forced expiration initiated at maximum inhalation as a proportion of the predicted normal value.", "preferredTerm": "Percent Predicted Peak Expiratory Flow", "submissionValue": "PEFPP", "synonyms": ["Percent Predicted Peak Expiratory Flow"]}, {"conceptId": "C112368", "definition": "The change in PEF following administration of a bronchodilator relative to the pre-treatment PEF value.", "preferredTerm": "Peak Expiratory Flow Reversibility", "submissionValue": "PEFREV", "synonyms": ["PEF Reversibility"]}, {"conceptId": "C123567", "definition": "A measurement of the ability of the lung to store energy, which is required for passive expiration.", "preferredTerm": "Pulmonary Reactance", "submissionValue": "PLMXRS", "synonyms": ["Pulmonary Reactance"]}, {"conceptId": "C119547", "definition": "The maximal flow achieved during the maximally forced inspiration through the nose initiated at maximum exhalation. (NCI)", "preferredTerm": "Peak Nasal Inspiratory Flow", "submissionValue": "PNIF", "synonyms": ["Peak Nasal Inspiratory Flow"]}, {"conceptId": "C120927", "definition": "A measurement of respiratory tract resistance to airflow during inspiration and expiration.", "preferredTerm": "Airway Resistance", "submissionValue": "RAW", "synonyms": ["Airway Resistance"]}, {"conceptId": "C123568", "definition": "The ratio between the amount of carbon dioxide produced and oxygen consumed in one breath.", "preferredTerm": "Respiratory Exchange Ratio", "submissionValue": "RER", "synonyms": ["Respiratory Exchange Ratio"]}, {"conceptId": "C122185", "definition": "A calculated value based on all factors that influence the flow of gas from the airway opening to the alveoli, including airway resistance, and tissue resistance of the lung and chest wall. (NCI)", "preferredTerm": "Total Respiratory System Resistance", "submissionValue": "RRS", "synonyms": ["Total Respiratory System Resistance"]}, {"conceptId": "C89836", "definition": "The volume of air remaining in the lungs after maximum exhalation.", "preferredTerm": "Residual Volume", "submissionValue": "RV", "synonyms": ["Residual Volume"]}, {"conceptId": "C112385", "definition": "The volume of air remaining in the lungs after maximum exhalation as a proportion of the predicted normal value.", "preferredTerm": "Percent Predicted Residual Volume", "submissionValue": "RVPP", "synonyms": ["Percent Predicted Residual Volume"]}, {"conceptId": "C122186", "definition": "A measurement of the airway conductance relative to lung volume. (NCI)", "preferredTerm": "Specific Airway Conductance", "submissionValue": "SGAW", "synonyms": ["Specific Airway Conductance"]}, {"conceptId": "C123569", "definition": "A measurement used to describe airway behavior irrespective of lung volume; it is calculated as airway resistance (Raw) multiplied by functional residual capacity (FRC).", "preferredTerm": "Specific Airway Resistance", "submissionValue": "SRAW", "synonyms": ["Specific Airway Resistance"]}, {"conceptId": "C111315", "definition": "The maximum volume of air that can be exhaled after slow maximum inhalation.", "preferredTerm": "Slow Vital Capacity", "submissionValue": "SVC", "synonyms": ["Slow Vital Capacity"]}, {"conceptId": "C112386", "definition": "The maximum volume of air that can be exhaled after slow maximum inhalation as a proportion of the predicted normal value.", "preferredTerm": "Percent Predicted Slow Vital Capacity", "submissionValue": "SVCPP", "synonyms": ["Percent Predicted Slow Vital Capacity"]}, {"conceptId": "C124426", "definition": "The absolute volume of air contained in the thoracic cavity at any given point in time and at any level of alveolar pressure.", "preferredTerm": "Thoracic Gas Volume", "submissionValue": "TGV", "synonyms": ["Thoracic Gas Volume"]}, {"conceptId": "C111325", "definition": "The total volume of air in the lungs after maximum inhalation.", "preferredTerm": "Total Lung Capacity", "submissionValue": "TLC", "synonyms": ["Total Lung Capacity"]}, {"conceptId": "C112388", "definition": "The total volume of air in the lungs after maximum inhalation as a proportion of the predicted normal value.", "preferredTerm": "Percent Predicted Total Lung Capacity", "submissionValue": "TLCPP", "synonyms": ["Percent Predicted Total Lung Capacity"]}, {"conceptId": "C111324", "definition": "The volume of air moved into and out of the lungs during breathing at rest.", "preferredTerm": "Tidal Volume", "submissionValue": "TV", "synonyms": ["Tidal Volume"]}, {"conceptId": "C112387", "definition": "The volume of air moved into and out of the lungs during breathing at rest as a proportion of the predicted normal value.", "preferredTerm": "Percent Predicted Tidal Volume", "submissionValue": "TVPP", "synonyms": ["Percent Predicted Tidal Volume"]}, {"conceptId": "C123570", "definition": "The rate at which oxygen is absorbed and utilized by any given tissue in the body.", "preferredTerm": "Oxygen Consumption", "submissionValue": "VO2", "synonyms": ["Oxygen Consumption"]}]}