{"_links": {"parentPackage": {"href": "/mdr/ct/packages/sdtmct-2015-12-18", "title": "SDTM Controlled Terminology Package 24 Effective 2015-12-18", "type": "Terminology"}, "rootItem": {"href": "/mdr/root/ct/sdtmct/codelists/C111350", "title": "Version-agnostic anchor resource for codelist C111350", "type": "Root Value Domain"}, "self": {"href": "/mdr/ct/packages/sdtmct-2015-12-18/codelists/C111350", "title": "CDISC Questionnaire SDS Test Code Terminology", "type": "Code List"}}, "conceptId": "C111350", "definition": "Sheehan Disability Scale test code.", "extensible": "false", "name": "Sheehan Disability Scale Questionnaire Test Code", "preferredTerm": "CDISC Questionnaire SDS Test Code Terminology", "submissionValue": "SDS TESTCD", "synonyms": ["Sheehan Disability Scale Questionnaire Test Code"], "terms": [{"conceptId": "C111521", "definition": "Sheehan Disability Scale - The symptoms have disrupted your work/school work.", "preferredTerm": "SDS - Symptoms Disrupted Work/School Work", "submissionValue": "SDS0101", "synonyms": ["SDS01-Work/School"]}, {"conceptId": "C111522", "definition": "Sheehan Disability Scale - I have not worked/studied at all during the past week for reasons unrelated to the disorder.", "preferredTerm": "SDS - Not Worked/Studied in Past Week for Reason Unrelated to Disorder", "submissionValue": "SDS0101A", "synonyms": ["SDS01-No Work/Study - Unrelated Disorder"]}, {"conceptId": "C111523", "definition": "Sheehan Disability Scale - The symptoms have disrupted your social life/leisure activities.", "preferredTerm": "SDS - Symptoms Disrupted Social Life/Leisure Activities", "submissionValue": "SDS0102", "synonyms": ["SDS01-Social Life"]}, {"conceptId": "C111524", "definition": "Sheehan Disability Scale - The symptoms have disrupted your family life/home responsibilities.", "preferredTerm": "SDS - Symptoms Disrupted Family Life/Home Responsibilities", "submissionValue": "SDS0103", "synonyms": ["SDS01-Family Life/Home Responsibilities"]}, {"conceptId": "C111525", "definition": "Sheehan Disability Scale - On how many days in the last week did your symptoms cause you to miss school or work or leave you unable to carry out your normal daily responsibilities?", "preferredTerm": "SDS - Days Lost", "submissionValue": "SDS0104", "synonyms": ["SDS01-Days Lost"]}, {"conceptId": "C111526", "definition": "Sheehan Disability Scale - On how many days in the last week did you feel so impaired by your symptoms, that even though you went to school or work or had other daily responsibilities, your productivity was reduced?", "preferredTerm": "SDS - Days Unproductive", "submissionValue": "SDS0105", "synonyms": ["SDS01-Days Unproductive"]}]}