{"_links": {"parentPackage": {"href": "/mdr/ct/packages/sdtmct-2015-12-18", "title": "SDTM Controlled Terminology Package 24 Effective 2015-12-18", "type": "Terminology"}, "rootItem": {"href": "/mdr/root/ct/sdtmct/codelists/C115388", "title": "Version-agnostic anchor resource for codelist C115388", "type": "Root Value Domain"}, "self": {"href": "/mdr/ct/packages/sdtmct-2015-12-18/codelists/C115388", "title": "CDISC Functional Test 6MWT Test Code Terminology", "type": "Code List"}}, "conceptId": "C115388", "definition": "6 Minute Walk Test test code.", "extensible": "false", "name": "6 Minute Walk Functional Test Test Code", "preferredTerm": "CDISC Functional Test 6MWT Test Code Terminology", "submissionValue": "SIX MINUTE WALK TESTCD", "synonyms": ["6 Minute Walk Functional Test Test Code"], "terms": [{"conceptId": "C115800", "definition": "6 Minute Walk Test - Distance at 1 minute.", "preferredTerm": "6MWT - Distance at 1 Minute", "submissionValue": "SIXMW101", "synonyms": ["SIXMW1-Distance at 1 Minute"]}, {"conceptId": "C115801", "definition": "6 Minute Walk Test - Distance at 2 minutes.", "preferredTerm": "6MWT - Distance at 2 Minutes", "submissionValue": "SIXMW102", "synonyms": ["SIXMW1-Distance at 2 Minutes"]}, {"conceptId": "C115802", "definition": "6 Minute Walk Test - Distance at 3 minutes.", "preferredTerm": "6MWT - Distance at 3 Minutes", "submissionValue": "SIXMW103", "synonyms": ["SIXMW1-Distance at 3 Minutes"]}, {"conceptId": "C115803", "definition": "6 Minute Walk Test - Distance at 4 minutes.", "preferredTerm": "6MWT - Distance at 4 Minutes", "submissionValue": "SIXMW104", "synonyms": ["SIXMW1-Distance at 4 Minutes"]}, {"conceptId": "C115804", "definition": "6 Minute Walk Test - Distance at 5 minutes.", "preferredTerm": "6MWT - Distance at 5 Minutes", "submissionValue": "SIXMW105", "synonyms": ["SIXMW1-Distance at 5 Minutes"]}, {"conceptId": "C115805", "definition": "6 Minute Walk Test - Distance at 6 minutes.", "preferredTerm": "6MWT - Distance at 6 Minutes", "submissionValue": "SIXMW106", "synonyms": ["SIXMW1-Distance at 6 Minutes"]}]}