{"_links": {"parentPackage": {"href": "/mdr/ct/packages/sdtmct-2015-12-18", "title": "SDTM Controlled Terminology Package 24 Effective 2015-12-18", "type": "Terminology"}, "priorVersion": {"href": "/mdr/ct/packages/sdtmct-2015-09-25/codelists/C116109", "title": "CDISC SDTM Viral Resistance Findings Test Name Terminology", "type": "Code List"}, "rootItem": {"href": "/mdr/root/ct/sdtmct/codelists/C116109", "title": "Version-agnostic anchor resource for codelist C116109", "type": "Root Value Domain"}, "self": {"href": "/mdr/ct/packages/sdtmct-2015-12-18/codelists/C116109", "title": "CDISC SDTM Viral Resistance Findings Test Name Terminology", "type": "Code List"}}, "conceptId": "C116109", "definition": "Terminology used for virology test names of the CDISC Study Data Tabulation Model.", "extensible": "true", "name": "Viral Resistance Findings Test Name", "preferredTerm": "CDISC SDTM Viral Resistance Findings Test Name Terminology", "submissionValue": "VRTEST", "synonyms": ["Viral Resistance Findings Test Name"], "terms": [{"conceptId": "C116250", "definition": "A fold change based on a concentration of a specific drug expected to produce 50% inhibition of the standard growth of a viral organism, or of a biological/biochemical reaction. It is a ratio calculated by the current IC50 Subject Result divided by the IC50 Subject Result from the baseline visit.", "preferredTerm": "Half Maximal Inhibitory Concentration Fold Change from Baseline Measurement", "submissionValue": "IC50 Fold Change from Baseline", "synonyms": ["IC50 Fold Change from Baseline"]}, {"conceptId": "C116249", "definition": "A fold change based on a concentration of a specific drug expected to produce 50% inhibition of the standard growth of a viral organism, or of a biological/biochemical reaction. It is a ratio calculated by the IC50 Subject Result divided by the IC50 Reference Control Result.", "preferredTerm": "Half Maximal Inhibitory Concentration Fold Change from Reference Measurement", "submissionValue": "IC50 Fold Change from Reference", "synonyms": ["IC50 Fold Change from Reference"]}, {"conceptId": "C116248", "definition": "A reference control sample response based on a concentration of a specific drug expected to produce 50% inhibition of the standard growth of a viral organism, or of a biological/biochemical reaction.", "preferredTerm": "Half Maximal Inhibitory Concentration Reference Control Result Measurement", "submissionValue": "IC50 Reference Control Result", "synonyms": ["IC50 Reference Control Result"]}, {"conceptId": "C116247", "definition": "A measurement of titer of a viral organism or biological/biochemical reaction that has been exposed to a concentration of a specific drug expected to produce 50% inhibition of the standard growth of the viral organism, or of a reaction.", "preferredTerm": "Half Maximal Inhibitory Concentration Subject Result Measurement", "submissionValue": "IC50 Subject Result", "synonyms": ["IC50 Subject Result"]}, {"conceptId": "C116254", "definition": "A fold change based on a concentration of a specific drug expected to produce 95% inhibition of the standard growth of a viral organism, or of a biological/biochemical reaction. It is a ratio calculated by the current IC95 Subject Result divided by the IC95 Subject Result from the baseline visit.", "preferredTerm": "95 Percent Maximal Inhibitory Concentration Fold Change from Baseline Measurement", "submissionValue": "IC95 Fold Change from Baseline", "synonyms": ["IC95 Fold Change from Baseline"]}, {"conceptId": "C116253", "definition": "A fold change based on a concentration of a specific drug expected to produce 95% inhibition of the standard growth of a viral organism, or of a biological/biochemical reaction. It is a ratio calculated by the IC95 Subject Result divided by the IC95 Reference Control Result.", "preferredTerm": "95 Percent Maximal Inhibitory Concentration Fold Change from Reference Measurement", "submissionValue": "IC95 Fold Change from Reference", "synonyms": ["IC95 Fold Change from Reference"]}, {"conceptId": "C116252", "definition": "A reference control sample response based on a concentration of a specific drug expected to produce 95% inhibition of the standard growth of a viral organism, or of a biological/biochemical reaction.", "preferredTerm": "95 Percent Maximal Inhibitory Concentration Reference Control Result Measurement", "submissionValue": "IC95 Reference Control Result", "synonyms": ["IC95 Reference Control Result"]}, {"conceptId": "C116251", "definition": "A measurement of titer of a viral organism or biological/biochemical reaction that has been exposed to a concentration of a specific drug expected to produce 95% inhibition of the standard growth of the viral organism, or of a reaction.", "preferredTerm": "95 Percent Maximal Inhibitory Concentration Subject Result Measurement", "submissionValue": "IC95 Subject Result", "synonyms": ["IC95 Subject Result"]}, {"conceptId": "C116255", "definition": "An indication of reduced or increased susceptibility of a viral organism, or activity of a biological/biochemical reaction in response to the inhibitory concentration (IC50 and/or IC95) of a specific drug.", "preferredTerm": "Inhibitory Concentration Net Assessment Measurement", "submissionValue": "Inhibitory Concentration Net Assessment", "synonyms": ["Inhibitory Concentration Net Assessment"]}]}