{"_links": {"parentPackage": {"href": "/mdr/ct/packages/sdtmct-2015-12-18", "title": "SDTM Controlled Terminology Package 24 Effective 2015-12-18", "type": "Terminology"}, "rootItem": {"href": "/mdr/root/ct/sdtmct/codelists/C119074", "title": "Version-agnostic anchor resource for codelist C119074", "type": "Root Value Domain"}, "self": {"href": "/mdr/ct/packages/sdtmct-2015-12-18/codelists/C119074", "title": "CDISC Clinical Classification TIMI Thrombus Grade Test Code Terminology", "type": "Code List"}}, "conceptId": "C119074", "definition": "Coronary Thrombus TIMI Grade test code.", "extensible": "false", "name": "Coronary Thrombus TIMI Grade Clinical Classification Test Code", "preferredTerm": "CDISC Clinical Classification TIMI Thrombus Grade Test Code Terminology", "submissionValue": "TIMI THROMBUS GRADE TESTCD", "synonyms": ["Coronary Thrombus TIMI Grade Clinical Classification Test Code"], "terms": [{"conceptId": "C119195", "definition": "Coronary Thrombus TIMI Grade - Grade corresponding to thrombus development as defined in the grading system by the Thrombolysis in the Myocardial Infarction Group.", "preferredTerm": "TIMI Thrombus Grade - Coronary Thrombus TIMI Grade", "submissionValue": "TIMG0101", "synonyms": ["TIMG01-Coronary Thrombus TIMI Grade"]}]}