{"_links": {"parentPackage": {"href": "/mdr/ct/packages/sdtmct-2015-12-18", "title": "SDTM Controlled Terminology Package 24 Effective 2015-12-18", "type": "Terminology"}, "rootItem": {"href": "/mdr/root/ct/sdtmct/codelists/C120990", "title": "Version-agnostic anchor resource for codelist C120990", "type": "Root Value Domain"}, "self": {"href": "/mdr/ct/packages/sdtmct-2015-12-18/codelists/C120990", "title": "CDISC Clinical Classification MELD Test Name Terminology", "type": "Code List"}}, "conceptId": "C120990", "definition": "Model for End Stage Liver Disease test name.", "extensible": "false", "name": "Model for End Stage Liver Disease Clinical Classification Test Name", "preferredTerm": "CDISC Clinical Classification MELD Test Name Terminology", "submissionValue": "MELD TEST", "synonyms": ["Model for End Stage Liver Disease Clinical Classification Test Name"], "terms": [{"conceptId": "C121076", "definition": "Model for End Stage Liver Disease - MELD score.", "preferredTerm": "MELD - Score", "submissionValue": "MELD01-Score", "synonyms": ["MELD01-Score"]}]}