{"_links": {"parentPackage": {"href": "/mdr/ct/packages/sdtmct-2015-12-18", "title": "SDTM Controlled Terminology Package 24 Effective 2015-12-18", "type": "Terminology"}, "priorVersion": {"href": "/mdr/ct/packages/sdtmct-2015-09-25/codelists/C122006", "title": "CDISC SDTM COPD Findings About Test Name Terminology", "type": "Code List"}, "rootItem": {"href": "/mdr/root/ct/sdtmct/codelists/C122006", "title": "Version-agnostic anchor resource for codelist C122006", "type": "Root Value Domain"}, "self": {"href": "/mdr/ct/packages/sdtmct-2015-12-18/codelists/C122006", "title": "CDISC SDTM COPD Findings About Test Name Terminology", "type": "Code List"}}, "conceptId": "C122006", "definition": "Terminology relevant to the test names that describe findings about a COPD event or intervention.", "extensible": "true", "name": "COPD Findings About Test Name", "preferredTerm": "CDISC SDTM COPD Findings About Test Name Terminology", "submissionValue": "CPFATS", "synonyms": ["COPD Findings About Test Name"], "terms": [{"conceptId": "C94596", "definition": "The total amount that a subject is exposed to over time.", "preferredTerm": "Cumulative Exposure", "submissionValue": "Cumulative Exposure", "synonyms": ["Cumulative Exposure"]}, {"conceptId": "C124328", "definition": "The number of times an event, which is classified as mild, occurred.", "preferredTerm": "Number of Mild Episodes", "submissionValue": "Number of Mild Episodes", "synonyms": ["Number of Mild Episodes"]}, {"conceptId": "C124329", "definition": "The number of times an event, which is classified as moderate, occurred.", "preferredTerm": "Number of Moderate Episodes", "submissionValue": "Number of Moderate Episodes", "synonyms": ["Number of Moderate Episodes"]}, {"conceptId": "C124330", "definition": "The number of times an event, which is classified as severe, occurred.", "preferredTerm": "Number of Severe Episodes", "submissionValue": "Number of Severe Episodes", "synonyms": ["Number of Severe Episodes"]}]}