{"_links": {"parentPackage": {"href": "/mdr/ct/packages/sdtmct-2015-12-18", "title": "SDTM Controlled Terminology Package 24 Effective 2015-12-18", "type": "Terminology"}, "rootItem": {"href": "/mdr/root/ct/sdtmct/codelists/C124679", "title": "Version-agnostic anchor resource for codelist C124679", "type": "Root Value Domain"}, "self": {"href": "/mdr/ct/packages/sdtmct-2015-12-18/codelists/C124679", "title": "CDISC Clinical Classification West Haven Criteria Test Name Terminology", "type": "Code List"}}, "conceptId": "C124679", "definition": "West Haven Hepatic Encephalopathy Grade test name.", "extensible": "false", "name": "West Haven Hepatic Encephalopathy Grade Clinical Classification Test Name", "preferredTerm": "CDISC Clinical Classification West Haven Criteria Test Name Terminology", "submissionValue": "WEST HAVEN HEPATIC ENCEPHALOPATHY GRADE TEST", "synonyms": ["West Haven Hepatic Encephalopathy Grade Clinical Classification Test Name"], "terms": [{"conceptId": "C117747", "definition": "West Haven Hepatic Encephalopathy Grade - Grade.", "preferredTerm": "West Haven Criteria - West Haven Hepatic Encephalopathy Grade", "submissionValue": "WHEG01-WH Hepatic Encephalopathy Grade", "synonyms": ["WHEG01-WH Hepatic Encephalopathy Grade"]}]}