{"_links": {"parentPackage": {"href": "/mdr/ct/packages/sdtmct-2015-12-18", "title": "SDTM Controlled Terminology Package 24 Effective 2015-12-18", "type": "Terminology"}, "rootItem": {"href": "/mdr/root/ct/sdtmct/codelists/C124677", "title": "Version-agnostic anchor resource for codelist C124677", "type": "Root Value Domain"}, "self": {"href": "/mdr/ct/packages/sdtmct-2015-12-18/codelists/C124677", "title": "CDISC Clinical Classification CDC Classification System for HIV-Infected Adults and Adolescents Test Name Terminology", "type": "Code List"}}, "conceptId": "C124677", "definition": "CDC Classification System for HIV-Infected Adults and Adolescents test name.", "extensible": "false", "name": "CDC Classification System for HIV-Infected Adults and Adolescents Clinical Classification Test Name", "preferredTerm": "CDISC Clinical Classification CDC Classification System for HIV-Infected Adults and Adolescents Test Name Terminology", "submissionValue": "CDC HIV CLASSIFICATION FOR ADULTS AND ADOLESCENTS TEST", "synonyms": ["CDC Classification System for HIV-Infected Adults and Adolescents Clinical Classification Test Name"], "terms": [{"conceptId": "C124779", "definition": "CDC Classification System for HIV-Infected Adults and Adolescents - CDC HIV infection category.", "preferredTerm": "CDC Classification System for HIV-Infected Adults and Adolescents - CDC HIV Infection Category", "submissionValue": "CHIVC1-CDC HIV Infection Category", "synonyms": ["CHIVC1-CDC HIV Infection Category"]}]}