{"_links": {"parentPackage": {"href": "/mdr/ct/packages/sdtmct-2015-12-18", "title": "SDTM Controlled Terminology Package 24 Effective 2015-12-18", "type": "Terminology"}, "rootItem": {"href": "/mdr/root/ct/sdtmct/codelists/C124678", "title": "Version-agnostic anchor resource for codelist C124678", "type": "Root Value Domain"}, "self": {"href": "/mdr/ct/packages/sdtmct-2015-12-18/codelists/C124678", "title": "CDISC Clinical Classification CDC Classification System for HIV-Infected Adults and Adolescents Test Code Terminology", "type": "Code List"}}, "conceptId": "C124678", "definition": "CDC Classification System for HIV-Infected Adults and Adolescents test code.", "extensible": "false", "name": "CDC Classification System for HIV-Infected Adults and Adolescents Clinical Classification Test Code", "preferredTerm": "CDISC Clinical Classification CDC Classification System for HIV-Infected Adults and Adolescents Test Code Terminology", "submissionValue": "CDC HIV CLASSIFICATION FOR ADULTS AND ADOLESCENTS TESTCD", "synonyms": ["CDC Classification System for HIV-Infected Adults and Adolescents Clinical Classification Test Code"], "terms": [{"conceptId": "C124779", "definition": "CDC Classification System for HIV-Infected Adults and Adolescents - CDC HIV infection category.", "preferredTerm": "CDC Classification System for HIV-Infected Adults and Adolescents - CDC HIV Infection Category", "submissionValue": "CHIVC101", "synonyms": ["CHIVC1-CDC HIV Infection Category"]}]}