{"_links": {"parentPackage": {"href": "/mdr/ct/packages/sdtmct-2015-12-18", "title": "SDTM Controlled Terminology Package 24 Effective 2015-12-18", "type": "Terminology"}, "rootItem": {"href": "/mdr/root/ct/sdtmct/codelists/C124668", "title": "Version-agnostic anchor resource for codelist C124668", "type": "Root Value Domain"}, "self": {"href": "/mdr/ct/packages/sdtmct-2015-12-18/codelists/C124668", "title": "CDISC Clinical Classification ASSIGN Score Test Code Terminology", "type": "Code List"}}, "conceptId": "C124668", "definition": "ASSIGN Cardiovascular Disease 10-Year Risk Score test code.", "extensible": "false", "name": "ASSIGN Cardiovascular Disease 10-Year Risk Score Clinical Classification Test Code", "preferredTerm": "CDISC Clinical Classification ASSIGN Score Test Code Terminology", "submissionValue": "ASSIGN CVD 10-YEAR RISK TESTCD", "synonyms": ["ASSIGN Cardiovascular Disease 10-Year Risk Score Clinical Classification Test Code"], "terms": [{"conceptId": "C124721", "definition": "ASSIGN Cardiovascular Disease 10-Year Risk Score - ASSIGN score.", "preferredTerm": "ASSIGN Score - Risk Score", "submissionValue": "ASSG0101", "synonyms": ["ASSG01-ASSIGN Score"]}]}