{"_links": {"parentPackage": {"href": "/mdr/ct/packages/sdtmct-2015-12-18", "title": "SDTM Controlled Terminology Package 24 Effective 2015-12-18", "type": "Terminology"}, "rootItem": {"href": "/mdr/root/ct/sdtmct/codelists/C124298", "title": "Version-agnostic anchor resource for codelist C124298", "type": "Root Value Domain"}, "self": {"href": "/mdr/ct/packages/sdtmct-2015-12-18/codelists/C124298", "title": "CDISC SDTM Category of Oncology Response Assessment Terminology", "type": "Code List"}}, "conceptId": "C124298", "definition": "The named criteria used for the grouping of assessments of response to treatment or therapy observations for oncology studies within the Disease Response and Clinical Classification domain.", "extensible": "true", "name": "Category of Oncology Response Assessment", "preferredTerm": "CDISC SDTM Category of Oncology Response Assessment Terminology", "submissionValue": "ONCRSCAT", "synonyms": ["Category of Oncology Response Assessment"], "terms": [{"conceptId": "C124414", "definition": "Response Evaluation Criteria in Solid Tumors (RECIST) version 1.0 (Therasse P, Arbuck SG, Eisenhauer EA, Wanders J, Kaplan RS, Rubenstein L, Verweij J, Van Glabbeke M, van Oosterom AT, Christian MC, Gwyther SG. New Guidelines to Evaluate the Response to Treatment in Solid Tumors. Journal of the National Cancer Institute 2000; 92(3):205-216).", "preferredTerm": "Response Evaluation Criteria in Solid Tumors Version 1.0", "submissionValue": "RECIST 1.0"}, {"conceptId": "C124415", "definition": "Response Evaluation Criteria in Solid Tumors (RECIST) version 1.1 (E.A. Eisenhauer, P. Therasse, J. Bogaerts, L.H. Schwartz, D. Sargent, R. Ford, J. Dancey, S. Arbuck, S. Gwyther, M. Mooney, L. Rubinstein, L. Shankar, L. Dodd, R. Kaplan, D. Lacombe, J. Verweij. New response evaluation criteria in solid tumours; Revised RECIST guideline (version 1.1). European Journal of Cancer 2009; 45:228-247).", "preferredTerm": "Response Evaluation Criteria in Solid Tumors Version 1.1", "submissionValue": "RECIST 1.1"}]}