{"_links": {"parentPackage": {"href": "/mdr/ct/packages/sdtmct-2015-12-18", "title": "SDTM Controlled Terminology Package 24 Effective 2015-12-18", "type": "Terminology"}, "priorVersion": {"href": "/mdr/ct/packages/sdtmct-2015-09-25/codelists/C66733", "title": "CDISC SDTM Size Terminology", "type": "Code List"}, "rootItem": {"href": "/mdr/root/ct/sdtmct/codelists/C66733", "title": "Version-agnostic anchor resource for codelist C66733", "type": "Root Value Domain"}, "self": {"href": "/mdr/ct/packages/sdtmct-2015-12-18/codelists/C66733", "title": "CDISC SDTM Size Terminology", "type": "Code List"}}, "conceptId": "C66733", "definition": "The physical magnitude of something. (NCI)", "extensible": "true", "name": "Size", "preferredTerm": "CDISC SDTM Size Terminology", "submissionValue": "SIZE", "synonyms": ["Size"], "terms": [{"conceptId": "C49508", "definition": "Of considerable or relatively great size, extent, or capacity. (NCI)", "preferredTerm": "Large", "submissionValue": "LARGE"}, {"conceptId": "C49507", "definition": "Mid-way between small and large in number, quantity, magnitude or extent. (NCI)", "preferredTerm": "Medium", "submissionValue": "MEDIUM"}, {"conceptId": "C25376", "definition": "Limited in number, quantity, magnitude or extent. (NCI)", "preferredTerm": "Small", "submissionValue": "SMALL"}]}