{"_links": {"parentPackage": {"href": "/mdr/ct/packages/sdtmct-2015-12-18", "title": "SDTM Controlled Terminology Package 24 Effective 2015-12-18", "type": "Terminology"}, "priorVersion": {"href": "/mdr/ct/packages/sdtmct-2015-09-25/codelists/C66787", "title": "CDISC SDTM Diagnosis Group Terminology", "type": "Code List"}, "rootItem": {"href": "/mdr/root/ct/sdtmct/codelists/C66787", "title": "Version-agnostic anchor resource for codelist C66787", "type": "Root Value Domain"}, "self": {"href": "/mdr/ct/packages/sdtmct-2015-12-18/codelists/C66787", "title": "CDISC SDTM Diagnosis Group Terminology", "type": "Code List"}}, "conceptId": "C66787", "definition": "A grouping of individuals on the basis of a shared procedure or disease, or lack thereof (e.g. healthy volunteers, type 2 diabetic subjects, subjects with renal cell cancer). Standardized naming systems are available that define the groups within which a subject should be placed. (NCI)", "extensible": "true", "name": "Diagnosis Group", "preferredTerm": "CDISC SDTM Diagnosis Group Terminology", "submissionValue": "TDIGRP", "synonyms": ["Diagnosis Group"], "terms": [{"conceptId": "C49651", "definition": "An individual who is or becomes a participant in a research study and has no significant health-related issues. (NCI)", "preferredTerm": "Healthy Subject", "submissionValue": "HEALTHY SUBJECTS"}]}