{"_links": {"parentPackage": {"href": "/mdr/ct/packages/sdtmct-2015-12-18", "title": "SDTM Controlled Terminology Package 24 Effective 2015-12-18", "type": "Terminology"}, "priorVersion": {"href": "/mdr/ct/packages/sdtmct-2015-09-25/codelists/C78732", "title": "CDISC SDTM Drug Accountability Test Code Terminology", "type": "Code List"}, "rootItem": {"href": "/mdr/root/ct/sdtmct/codelists/C78732", "title": "Version-agnostic anchor resource for codelist C78732", "type": "Root Value Domain"}, "self": {"href": "/mdr/ct/packages/sdtmct-2015-12-18/codelists/C78732", "title": "CDISC SDTM Drug Accountability Test Code Terminology", "type": "Code List"}}, "conceptId": "C78732", "definition": "The short name, or code, of the test for the drug accountability assessment.", "extensible": "true", "name": "Drug Accountability Test Code", "preferredTerm": "CDISC SDTM Drug Accountability Test Code Terminology", "submissionValue": "DATESTCD", "synonyms": ["Drug Accountability Test Code"], "terms": [{"conceptId": "C78721", "definition": "The quantity of a product that has been dispensed. (NCI)", "preferredTerm": "Dispensed Amount", "submissionValue": "DISPAMT", "synonyms": ["Dispensed Amount"]}, {"conceptId": "C78722", "definition": "The quantity of a product that has been returned. (NCI)", "preferredTerm": "Returned Amount", "submissionValue": "RETAMT", "synonyms": ["Returned Amount"]}]}