{"_links": {"parentPackage": {"href": "/mdr/ct/packages/sdtmct-2015-12-18", "title": "SDTM Controlled Terminology Package 24 Effective 2015-12-18", "type": "Terminology"}, "priorVersion": {"href": "/mdr/ct/packages/sdtmct-2015-09-25/codelists/C87162", "title": "CDISC SDTM Common Terminology Criteria for Adverse Event Grade Terminology Version 4.0", "type": "Code List"}, "rootItem": {"href": "/mdr/root/ct/sdtmct/codelists/C87162", "title": "Version-agnostic anchor resource for codelist C87162", "type": "Root Value Domain"}, "self": {"href": "/mdr/ct/packages/sdtmct-2015-12-18/codelists/C87162", "title": "CDISC SDTM Common Terminology Criteria for Adverse Event Grade Terminology Version 4.0", "type": "Code List"}}, "conceptId": "C87162", "definition": "The version 4.0 standard terminology developed to report adverse events occurring in cancer clinical trials. Common terminology criteria for adverse events (CTCAE) are used to study adverse event summaries and Investigational New Drug reports to the Food and Drug Administration. The CTCAE contain a grading scale for each adverse event term representing the severity of the event. (NCI)", "extensible": "false", "name": "Common Terminology Criteria for Adverse Events V4.0", "preferredTerm": "CDISC SDTM Common Terminology Criteria for Adverse Event Grade Terminology Version 4.0", "submissionValue": "TOXGRV4", "synonyms": ["Common Terminology Criteria for Adverse Events V4.0"], "terms": [{"conceptId": "C75533", "definition": "Grade 0 is universally defined as absence of Adverse Events or within normal limits or values.", "preferredTerm": "Absent Adverse Event", "submissionValue": "0", "synonyms": ["0", "ABSENT", "Grade 0"]}, {"conceptId": "C84263", "definition": "An adverse event that is asymptomatic; or involves mild or minor symptoms; or is of marginal clinical relevance; or consists of clinical or diagnostic observations alone; or for which intervention is not indicated; or for which only non-prescription intervention is indicated.", "preferredTerm": "Mild Adverse Event", "submissionValue": "1", "synonyms": ["1", "Grade 1", "MILD"]}, {"conceptId": "C84264", "definition": "An adverse event for which only minimal, local, or noninvasive intervention (e.g. packing, cautery) is indicated; or that limits instrumental activities of daily living (ADLs, e.g., shopping, laundry, transportation, or ability to conduct finances).", "preferredTerm": "Moderate Adverse Event", "submissionValue": "2", "synonyms": ["2", "Grade 2", "MODERATE"]}, {"conceptId": "C84265", "definition": "An adverse event that is medically significant but not life-threatening; or for which inpatient care or prolongation of hospitalization are indicated; or that is an important medical event that does not result in hospitalization, but may jeopardize the patient or may require intervention either to prevent hospitalization, to prevent the AE from becoming life-threatening or causing death; or that is disabling; or that results in persistent or significant disability, incapacity, or limitation of self care activities of daily living (ADLs, e.g., getting in and out of bed, dressing, eating, getting around inside, bathing, or using the toilet).", "preferredTerm": "Severe Adverse Event", "submissionValue": "3", "synonyms": ["3", "Grade 3", "SEVERE"]}, {"conceptId": "C84266", "definition": "An adverse event that has life-threatening consequences; for which urgent intervention is indicated; that puts the patient at risk of death at the time of the event if immediate intervention is not undertaken; or that causes blindness or deafness.", "preferredTerm": "Life Threatening Adverse Event", "submissionValue": "4", "synonyms": ["4", "Grade 4", "LIFE THREATENING"]}, {"conceptId": "C48275", "definition": "The termination of life as a result of an adverse event. (NCI)", "preferredTerm": "Death Related to Adverse Event", "submissionValue": "5", "synonyms": ["5", "FATAL", "Grade 5"]}]}