{"_links": {"parentPackage": {"href": "/mdr/ct/packages/protocolct-2022-06-24", "title": "Protocol Controlled Terminology Package 50 Effective 2022-06-24", "type": "Terminology"}, "priorVersion": {"href": "/mdr/ct/packages/protocolct-2022-03-25/codelists/C165641", "title": "CDISC Protocol Outcome Measure Attribute Terminology", "type": "Code List"}, "rootItem": {"href": "/mdr/root/ct/protocolct/codelists/C165641", "title": "Version-agnostic anchor resource for codelist C165641", "type": "Root Value Domain"}, "self": {"href": "/mdr/ct/packages/protocolct-2022-06-24/codelists/C165641", "title": "CDISC Protocol Outcome Measure Attribute Terminology", "type": "Code List"}}, "conceptId": "C165641", "definition": "A terminology value set relevant to the attributes of the outcome measure entity.", "name": "Outcome Measure Attribute Terminology", "preferredTerm": "CDISC Protocol Outcome Measure Attribute Terminology", "submissionValue": "Outcome Measure Attribute Terminology", "synonyms": ["Outcome Measure Attribute Terminology"], "terms": [{"conceptId": "C165138", "definition": "A full description of the outcome measure.", "preferredTerm": "Study Outcome Measure Description", "submissionValue": "Outcome Measure Description"}, {"conceptId": "C165859", "definition": "The period of time over which the study outcome measure is assessed.", "preferredTerm": "Outcome Measure Time Frame", "submissionValue": "Outcome Measure Time Frame"}, {"conceptId": "C165860", "definition": "The descriptive name of the outcome measure.", "preferredTerm": "Outcome Measure Title", "submissionValue": "Outcome Measure Title"}, {"conceptId": "C165861", "definition": "A characterization or classification of the specific key measurement(s) or observation(s) used to measure the effect of experimental variables on the participants in a study, or for observational studies, to describe patterns of diseases or traits or associations with exposures, risk factors or treatment.", "preferredTerm": "Outcome Measure Type", "submissionValue": "Outcome Measure Type"}]}