{"_links": {"parentPackage": {"href": "/mdr/ct/packages/protocolct-2022-06-24", "title": "Protocol Controlled Terminology Package 50 Effective 2022-06-24", "type": "Terminology"}, "priorVersion": {"href": "/mdr/ct/packages/protocolct-2022-03-25/codelists/C174222", "title": "CDISC Protocol Study Arm Type Value Set Terminology", "type": "Code List"}, "rootItem": {"href": "/mdr/root/ct/protocolct/codelists/C174222", "title": "Version-agnostic anchor resource for codelist C174222", "type": "Root Value Domain"}, "self": {"href": "/mdr/ct/packages/protocolct-2022-06-24/codelists/C174222", "title": "CDISC Protocol Study Arm Type Value Set Terminology", "type": "Code List"}}, "conceptId": "C174222", "definition": "The terminology relevant to the identification of the kind of arm.", "name": "Study Arm Type Value Set Terminology", "preferredTerm": "CDISC Protocol Study Arm Type Value Set Terminology", "submissionValue": "Study Arm Type Value Set Terminology", "synonyms": ["Study Arm Type Value Set Terminology"], "terms": [{"conceptId": "C174267", "definition": "An arm describing the active comparator.", "preferredTerm": "Active Comparator Arm", "submissionValue": "Active Comparator Arm"}, {"conceptId": "C174226", "definition": "An arm describing the intervention or treatment plan for a group of participants in the study receiving a control. The control may comprise a non-investigational product (active control) or regimen, placebo, or no treatment.", "preferredTerm": "Control Arm", "submissionValue": "Control Arm"}, {"conceptId": "C174266", "definition": "An arm describing the intervention or treatment plan for a group of participants in the study receiving test product(s).", "preferredTerm": "Investigational Arm", "submissionValue": "Experimental Arm", "synonyms": ["Investigational Arm"]}, {"conceptId": "C174270", "definition": "A study arm without an intervention or treatment.", "preferredTerm": "No Intervention Arm", "submissionValue": "No Intervention Arm"}, {"conceptId": "C174268", "definition": "An arm describing the placebo comparator.", "preferredTerm": "Placebo Control Arm", "submissionValue": "Placebo Comparator Arm", "synonyms": ["Placebo Control Arm"]}, {"conceptId": "C174269", "definition": "An arm describing the sham comparator.", "preferredTerm": "Sham Comparator Arm", "submissionValue": "Sham Comparator Arm", "synonyms": ["Sham Intervention Arm"]}, {"conceptId": "C15538", "definition": "An arm describing the intervention or treatment plan for a group of participants in the study. Treatment may consist of either experimental or control products under investigation.", "preferredTerm": "Protocol Treatment Arm", "submissionValue": "Treatment Arm"}]}