{"_links": {"parentPackage": {"href": "/mdr/ct/packages/protocolct-2022-06-24", "title": "Protocol Controlled Terminology Package 50 Effective 2022-06-24", "type": "Terminology"}, "priorVersion": {"href": "/mdr/ct/packages/protocolct-2022-03-25/codelists/C184334", "title": "CDISC Protocol Informed Consent Attribute Terminology", "type": "Code List"}, "rootItem": {"href": "/mdr/root/ct/protocolct/codelists/C184334", "title": "Version-agnostic anchor resource for codelist C184334", "type": "Root Value Domain"}, "self": {"href": "/mdr/ct/packages/protocolct-2022-06-24/codelists/C184334", "title": "CDISC Protocol Informed Consent Attribute Terminology", "type": "Code List"}}, "conceptId": "C184334", "definition": "A terminology value set relevant to the attributes of the informed consent.", "name": "Informed Consent Attribute Terminology", "preferredTerm": "CDISC Protocol Informed Consent Attribute Terminology", "submissionValue": "Informed Consent Attribute Terminology", "synonyms": ["Informed Consent Attribute Terminology"], "terms": [{"conceptId": "C161418", "definition": "Assent given by a minor or adult who is unable to give informed consent on their own behalf, to participate in a clinical trial. Assent must be accompanied by consent from a parent or legal guardian for full participation in the study.", "preferredTerm": "Informed Assent", "submissionValue": "Assent", "synonyms": ["Informed Assent"]}, {"conceptId": "C16468", "definition": "A formal document explaining the potential risks and benefits of participation in a study and the rights and responsibilities of the parties involved, in a manner that is understandable to the subject or their legally authorized representative.", "preferredTerm": "Consent Form", "submissionValue": "Informed Consent Form", "synonyms": ["Informed Consent Document"]}, {"conceptId": "C184390", "definition": "The procedure by which informed consent is obtained and documented by means of a written, signed, and dated informed consent form. This process may include obtaining assent from subjects with legally authorized representatives. (ICH GCP)", "preferredTerm": "Informed Consent Process", "submissionValue": "Informed Consent Process", "synonyms": ["Informed Consent Procedure"]}]}