{"_links": {"parentPackage": {"href": "/mdr/ct/packages/protocolct-2022-06-24", "title": "Protocol Controlled Terminology Package 50 Effective 2022-06-24", "type": "Terminology"}, "rootItem": {"href": "/mdr/root/ct/protocolct/codelists/C187682", "title": "Version-agnostic anchor resource for codelist C187682", "type": "Root Value Domain"}, "self": {"href": "/mdr/ct/packages/protocolct-2022-06-24/codelists/C187682", "title": "CDISC Protocol Expanded Access Attribute Terminology", "type": "Code List"}}, "conceptId": "C187682", "definition": "A terminology value set relevant to the attributes of the expanded access entity.", "name": "Expanded Access Attribute Terminology", "preferredTerm": "CDISC Protocol Expanded Access Attribute Terminology", "submissionValue": "Expanded Access Attribute Terminology", "synonyms": ["Expanded Access Attribute Terminology"], "terms": [{"conceptId": "C187705", "definition": "A characterization or classification of the studies that provide a means for obtaining an experimental drug or device for patients who are not adequately treated by existing therapy, who do not meet the eligibility criteria for enrollment, or who are otherwise unable to participate in another clinical study.", "preferredTerm": "Expanded Access Study Type", "submissionValue": "Expanded Access Study Type"}]}