{"_links": {"parentPackage": {"href": "/mdr/ct/packages/define-xmlct-2021-03-26", "title": "Define-XML Controlled Terminology Package 45 Effective 2021-03-26", "type": "Terminology"}, "priorVersion": {"href": "/mdr/ct/packages/define-xmlct-2020-12-18/codelists/C103329", "title": "CDISC Define-XML General Observation Class Terminology", "type": "Code List"}, "rootItem": {"href": "/mdr/root/ct/define-xmlct/codelists/C103329", "title": "Version-agnostic anchor resource for codelist C103329", "type": "Root Value Domain"}, "self": {"href": "/mdr/ct/packages/define-xmlct-2021-03-26/codelists/C103329", "title": "CDISC Define-XML General Observation Class Terminology", "type": "Code List"}}, "conceptId": "C103329", "definition": "Terminology related to the classification of a CDISC domain.", "extensible": "false", "name": "General Observation Class", "preferredTerm": "CDISC Define-XML General Observation Class Terminology", "submissionValue": "GNRLOBSC", "synonyms": ["General Observation Class"], "terms": [{"conceptId": "C103375", "definition": "An analysis dataset that doesn't conform to a pre-defined ADaM dataset structure (e.g. ADSL, BDS or OCCDS).", "preferredTerm": "CDISC Other ADaM Dataset", "submissionValue": "ADAM OTHER", "synonyms": ["ADaM Other"]}, {"conceptId": "C103371", "definition": "An ADaM BDS dataset contains one or more records per subject, per analysis parameter, per analysis time point. Variables include the value being analyzed (e.g., AVAL) and the description of the value being analyzed (e.g., PARAM). Other variables in the dataset provide more information about the value being analyzed (e.g., the subject identification) or describe and trace the derivation of it (e.g., DTYPE) or support the analysis of it (e.g., treatment variables, covariates).", "preferredTerm": "CDISC Basic Data Structure Dataset", "submissionValue": "BASIC DATA STRUCTURE", "synonyms": ["BDS", "Basic Data Structure"]}, {"conceptId": "C177921", "definition": "The Device-Level Analysis Dataset (ADDL) is a one-record-per-device or one-record-per-subject-per-device dataset which contains variables that describe device characteristics and timing, and group the devices for analysis. ADDL is the primary source for device-level variables included in other analysis datasets.", "preferredTerm": "Device Level Analysis Dataset", "submissionValue": "DEVICE LEVEL ANALYSIS DATASET", "synonyms": ["ADDL", "Device Level Analysis Dataset"]}, {"conceptId": "C103372", "definition": "This SDTM class captures planned protocol milestones such as randomization and study completion, and occurrences, conditions, or incidents independent of planned study evaluations occurring during the trial (e.g., adverse events) or prior to the trial (e.g., medical history).", "preferredTerm": "CDISC Events Class", "submissionValue": "EVENTS", "synonyms": ["Events"]}, {"conceptId": "C103373", "definition": "This SDTM class captures the observations resulting from planned evaluations to address specific tests or questions such as laboratory tests, ECG testing, and questions listed on questionnaires.", "preferredTerm": "CDISC Findings Class", "submissionValue": "FINDINGS", "synonyms": ["Findings"]}, {"conceptId": "C135396", "definition": "This SDTM class is a specialization of the findings general observation class. It is intended, as its name implies, to be used when collected data represent findings about an event or intervention that cannot be represented within an event or intervention record or as a supplemental qualifier to such a record.", "preferredTerm": "CDISC Findings About Class", "submissionValue": "FINDINGS ABOUT", "synonyms": ["Findings About"]}, {"conceptId": "C103374", "definition": "This SDTM class captures investigational, therapeutic and other treatments that are administered to the subject (with some actual or expected physiological effect) either as specified by the study protocol (e.g., exposure to study drug), coincident with the study assessment period (e.g., concomitant medications), or self-administered by the subject (such as use of alcohol, tobacco, or caffeine).", "preferredTerm": "CDISC Interventions Class", "submissionValue": "INTERVENTIONS", "synonyms": ["Interventions"]}, {"conceptId": "C177922", "definition": "The Medical Device Basic Data Structure (MDBDS) supports the analysis needs by adding SPDEVID as a required key variable and USUBJID a conditionally required variable. See the BDS class for further details.", "preferredTerm": "Medical Device Basic Data Structure", "submissionValue": "MEDICAL DEVICE BASIC DATA STRUCTURE", "synonyms": ["MDBDS", "Medical Device Basic Data Structure"]}, {"conceptId": "C177923", "definition": "The Medical Device Occurrence Data Structure (MDOCCDS) supports the analysis needs by adding SPDEVID as a required identifier and allowing USUBJID be a conditionally required variable. See the OCCDS class for further details.", "preferredTerm": "Medical Device Occurrence Data Structure", "submissionValue": "MEDICAL DEVICE OCCURRENCE DATA STRUCTURE", "synonyms": ["MDOCCDS", "Medical Device Occurrence Data Structure"]}, {"conceptId": "C123454", "definition": "The Occurrence Data Structure (OCCDS) is the ADaM data structure for occurrence analysis. Occurrence analysis is the counting of subjects with a record or term, and often includes a structured hierarchy of dictionary coding categories.", "preferredTerm": "CDISC Occurrence Data Structure", "submissionValue": "OCCURRENCE DATA STRUCTURE", "synonyms": ["OCCDS", "Occurrence Data Structure"]}, {"conceptId": "C103376", "definition": "This SDTM class provides a means to link related records between datasets. It includes the RELREC and SUPPQUAL datasets.", "preferredTerm": "CDISC Relationship Class", "submissionValue": "RELATIONSHIP", "synonyms": ["Relationships"]}, {"conceptId": "C103377", "definition": "This SDTM class contains a set of domains which do not conform to the Findings, Events or Interventions observation classes. The domains included are DM, CO, SE and SV.", "preferredTerm": "CDISC Special Purpose Class", "submissionValue": "SPECIAL PURPOSE", "synonyms": ["SPECIAL-PURPOSE", "Special Purpose"]}, {"conceptId": "C147271", "definition": "This special purpose SDTM class contains further descriptions of study-specific identifiers that will be used in subject based domains.", "preferredTerm": "CDISC Study Reference Class", "submissionValue": "STUDY REFERENCE", "synonyms": ["Study Reference"]}, {"conceptId": "C103378", "definition": "The Subject-Level Analysis Dataset (ADSL) is a one-record-per-subject dataset which contains variables that describe subject demographic characteristics and group the subjects for analysis. ADSL is the primary source for subject-level variables included in other analysis datasets such as population flags and treatment variables.", "preferredTerm": "CDISC Subject Level Analysis Dataset", "submissionValue": "SUBJECT LEVEL ANALYSIS DATASET", "synonyms": ["ADSL", "Subject Level Analysis Dataset"]}, {"conceptId": "C103379", "definition": "This SDTM class describes the plan for the procedures to be followed in a clinical trial, including planned and actual timing of events, control group, method of allocating treatments, blinding methods, assignment of epochs that subjects pass through in the course of a trial.", "preferredTerm": "CDISC Trial Design Class", "submissionValue": "TRIAL DESIGN", "synonyms": ["Trial Design"]}]}