{"_links": {"parentPackage": {"href": "/mdr/ct/packages/define-xmlct-2021-03-26", "title": "Define-XML Controlled Terminology Package 45 Effective 2021-03-26", "type": "Terminology"}, "priorVersion": {"href": "/mdr/ct/packages/define-xmlct-2020-12-18/codelists/C117744", "title": "CDISC Define-XML Analysis Reason Terminology", "type": "Code List"}, "rootItem": {"href": "/mdr/root/ct/define-xmlct/codelists/C117744", "title": "Version-agnostic anchor resource for codelist C117744", "type": "Root Value Domain"}, "self": {"href": "/mdr/ct/packages/define-xmlct-2021-03-26/codelists/C117744", "title": "CDISC Define-XML Analysis Reason Terminology", "type": "Code List"}}, "conceptId": "C117744", "definition": "Reason for reporting a specific analysis result described in Define-XML analysis results metadata.", "extensible": "true", "name": "Analysis Reason", "preferredTerm": "CDISC Define-XML Analysis Reason Terminology", "submissionValue": "ANLREAS", "synonyms": ["Analysis Reason"], "terms": [{"conceptId": "C117750", "definition": "The analysis was triggered by findings in the data.", "preferredTerm": "Data Driven Analysis", "submissionValue": "DATA DRIVEN"}, {"conceptId": "C117751", "definition": "The analysis has been requested by a regulatory agency.", "preferredTerm": "Analysis Requested by Regulatory Agency", "submissionValue": "REQUESTED BY REGULATORY AGENCY"}, {"conceptId": "C117752", "definition": "The analysis is specified in a protocol.", "preferredTerm": "Analysis Specified in Protocol", "submissionValue": "SPECIFIED IN PROTOCOL"}, {"conceptId": "C117753", "definition": "The analysis is specified in a statistical analysis plan.", "preferredTerm": "Analysis Specified in Statistical Analysis Plan", "submissionValue": "SPECIFIED IN SAP"}]}