{"_links": {"parentPackage": {"href": "/mdr/ct/packages/define-xmlct-2021-03-26", "title": "Define-XML Controlled Terminology Package 45 Effective 2021-03-26", "type": "Terminology"}, "priorVersion": {"href": "/mdr/ct/packages/define-xmlct-2020-12-18/codelists/C170449", "title": "CDISC Define-XML Origin Type Terminology", "type": "Code List"}, "rootItem": {"href": "/mdr/root/ct/define-xmlct/codelists/C170449", "title": "Version-agnostic anchor resource for codelist C170449", "type": "Root Value Domain"}, "self": {"href": "/mdr/ct/packages/define-xmlct-2021-03-26/codelists/C170449", "title": "CDISC Define-XML Origin Type Terminology", "type": "Code List"}}, "conceptId": "C170449", "definition": "Terminology relevant to the origin type for datasets in the Define-XML document.", "extensible": "false", "name": "Origin Type", "preferredTerm": "CDISC Define-XML Origin Type Terminology", "submissionValue": "ORIGINT", "synonyms": ["Origin Type"], "terms": [{"conceptId": "C170547", "definition": "A value that is derived through designation, such as values from a look up table or a label on a CRF.", "preferredTerm": "Assigned Value", "submissionValue": "Assigned"}, {"conceptId": "C170548", "definition": "A value that is actually observed and recorded by a person or obtained by an instrument.", "preferredTerm": "Collected Value", "submissionValue": "Collected"}, {"conceptId": "C170549", "definition": "A value that is calculated by an algorithm or reproducible rule, and which is dependent upon other data values.", "preferredTerm": "Derived Value", "submissionValue": "Derived"}, {"conceptId": "C126101", "definition": "A value that is not discoverable or accessible.", "preferredTerm": "Not Available", "submissionValue": "Not Available"}, {"conceptId": "C17649", "definition": "Different than the one(s) previously specified or mentioned. (NCI)", "preferredTerm": "Other", "submissionValue": "Other", "synonyms": ["Other"]}, {"conceptId": "C170550", "definition": "A value that is copied from a variable in another dataset.", "preferredTerm": "Copied Value", "submissionValue": "Predecessor"}, {"conceptId": "C170551", "definition": "A value that is included as part of the study protocol.", "preferredTerm": "Protocol Value", "submissionValue": "Protocol"}]}