{"_links": {"parentPackage": {"href": "/mdr/ct/packages/define-xmlct-2021-03-26", "title": "Define-XML Controlled Terminology Package 45 Effective 2021-03-26", "type": "Terminology"}, "priorVersion": {"href": "/mdr/ct/packages/define-xmlct-2020-12-18/codelists/C170452", "title": "CDISC Define-XML Standard Name Terminology", "type": "Code List"}, "rootItem": {"href": "/mdr/root/ct/define-xmlct/codelists/C170452", "title": "Version-agnostic anchor resource for codelist C170452", "type": "Root Value Domain"}, "self": {"href": "/mdr/ct/packages/define-xmlct-2021-03-26/codelists/C170452", "title": "CDISC Define-XML Standard Name Terminology", "type": "Code List"}}, "conceptId": "C170452", "definition": "Terminology relevant to the name of the standard described in the Define-XML document.", "extensible": "true", "name": "Standard Name", "preferredTerm": "CDISC Define-XML Standard Name Terminology", "submissionValue": "STDNAM", "synonyms": ["Standard Name"], "terms": [{"conceptId": "C170552", "definition": "The implementation guide for the Clinical Data Interchange Standards Consortium (CDISC) Analysis Data Model standard.", "preferredTerm": "ADaM Implementation Guide", "submissionValue": "ADaMIG"}, {"conceptId": "C163415", "definition": "A standard terminology developed and maintained by Clinical Data Interchange Standards Consortium (CDISC) and the National Cancer Institute Enterprise Vocabulary Services (NCI-EVS) to support CDISC models, domains and specifications for data representation in regulated research.", "preferredTerm": "Clinical Data Interchange Standards Consortium Controlled Terminology", "submissionValue": "CDISC/NCI", "synonyms": ["CDISC Controlled Terminology", "Clinical Data Interchange Standards Consortium Controlled Terminology"]}, {"conceptId": "C170455", "definition": "The implementation guide for the Clinical Data Interchange Standards Consortium (CDISC) Study Data Tabulation Model standard.", "preferredTerm": "SDTM Implementation Guide", "submissionValue": "SDTMIG"}, {"conceptId": "C170553", "definition": "The implementation guide for the Clinical Data Interchange Standards Consortium (CDISC) Study Data Tabulation Model Associated Persons standard.", "preferredTerm": "SDTM Implementation Guide-Associated Persons", "submissionValue": "SDTMIG-AP"}, {"conceptId": "C170554", "definition": "The implementation guide for the Clinical Data Interchange Standards Consortium (CDISC) Study Data Tabulation Model Medical Devices standard.", "preferredTerm": "SDTM Implementation Guide-Medical Devices", "submissionValue": "SDTMIG-MD"}, {"conceptId": "C170555", "definition": "The implementation guide for the Clinical Data Interchange Standards Consortium (CDISC) Study Data Tabulation Model Pharmacogenomics/Genetics standard.", "preferredTerm": "SDTM Implementation Guide-Pharmacogenomics/Genetics", "submissionValue": "SDTMIG-PGx"}, {"conceptId": "C170456", "definition": "The implementation guide for the Clinical Data Interchange Standards Consortium (CDISC) Standard for the Exchange of Nonclinical Data standard.", "preferredTerm": "SEND Implementation Guide", "submissionValue": "SENDIG"}, {"conceptId": "C170556", "definition": "The implementation guide for the Clinical Data Interchange Standards Consortium (CDISC) Standard for the Exchange of Nonclinical Data Developmental and Reproductive Toxicology standard.", "preferredTerm": "SEND Implementation Guide-Developmental and Reproductive Toxicology", "submissionValue": "SENDIG-DART"}]}