{"_links": {"parentPackage": {"href": "/mdr/ct/packages/sendct-2019-09-27", "title": "SEND Controlled Terminology Package 39 Effective 2019-09-27", "type": "Terminology"}, "priorVersion": {"href": "/mdr/ct/packages/sendct-2019-06-28/codelists/C120529", "title": "CDISC SEND Chronicity Terminology", "type": "Code List"}, "rootItem": {"href": "/mdr/root/ct/sendct/codelists/C120529", "title": "Version-agnostic anchor resource for codelist C120529", "type": "Root Value Domain"}, "self": {"href": "/mdr/ct/packages/sendct-2019-09-27/codelists/C120529", "title": "CDISC SEND Chronicity Terminology", "type": "Code List"}}, "conceptId": "C120529", "definition": "Terminology relevant to the relative duration of a finding.", "extensible": "true", "name": "Chronicity", "preferredTerm": "CDISC SEND Chronicity Terminology", "submissionValue": "CHRNCTY", "synonyms": ["Chronicity"], "terms": [{"conceptId": "C14140", "definition": "Morphologic changes that have a rapid onset.", "preferredTerm": "Acute", "submissionValue": "ACUTE"}, {"conceptId": "C14141", "definition": "Morphologic changes that are persistent or long standing.", "preferredTerm": "Chronic", "submissionValue": "CHRONIC"}, {"conceptId": "C120853", "definition": "Morphologic changes that are persistent or long standing, superimposed with areas of acute change.", "preferredTerm": "Chronic Active", "submissionValue": "CHRONIC ACTIVE"}, {"conceptId": "C120854", "definition": "Morphologic changes of very short or immediate onset. This onset is more rapid than that which is seen in an acute chronicity.", "preferredTerm": "Peracute", "submissionValue": "PERACUTE"}, {"conceptId": "C120855", "definition": "Morphologic changes containing characteristics of both acute and chronic, but predominantly acute.", "preferredTerm": "Subacute", "submissionValue": "SUBACUTE"}, {"conceptId": "C120856", "definition": "Morphologic changes containing characteristics of both acute and chronic, but predominantly chronic.", "preferredTerm": "Subchronic", "submissionValue": "SUBCHRONIC"}]}