{"_links": {"parentPackage": {"href": "/mdr/ct/packages/sendct-2019-09-27", "title": "SEND Controlled Terminology Package 39 Effective 2019-09-27", "type": "Terminology"}, "priorVersion": {"href": "/mdr/ct/packages/sendct-2019-06-28/codelists/C124323", "title": "CDISC SEND Pregnancy Findings Result Terminology", "type": "Code List"}, "rootItem": {"href": "/mdr/root/ct/sendct/codelists/C124323", "title": "Version-agnostic anchor resource for codelist C124323", "type": "Root Value Domain"}, "self": {"href": "/mdr/ct/packages/sendct-2019-09-27/codelists/C124323", "title": "CDISC SEND Pregnancy Findings Result Terminology", "type": "Code List"}}, "conceptId": "C124323", "definition": "Terminology relevant to the results for pregnancy findings.", "extensible": "true", "name": "Pregnancy Findings Result", "preferredTerm": "CDISC SEND Pregnancy Findings Result Terminology", "submissionValue": "PYFINDRS", "synonyms": ["Pregnancy Findings Result"], "terms": [{"conceptId": "C124616", "definition": "Loss of all or part of the products of conception prior to the scheduled c-section date or expected delivery date.", "preferredTerm": "Experimental Organism Aborted", "submissionValue": "ABORTED"}, {"conceptId": "C124617", "definition": "A birth event that occurs prior to the scheduled c-section date or expected delivery date.", "preferredTerm": "Early Delivery of Experimental Organism", "submissionValue": "EARLY DELIVERY"}, {"conceptId": "C82475", "definition": "Observed to be negative for a pregnancy test or not pregnant.", "preferredTerm": "Not Pregnant", "submissionValue": "NOT PREGNANT"}, {"conceptId": "C124295", "definition": "Observed to be or have been pregnant or positive for a pregnancy test.", "preferredTerm": "Pregnant", "submissionValue": "PREGNANT"}, {"conceptId": "C124618", "definition": "A pregnancy result for a female that had all intrauterine deaths.", "preferredTerm": "Resorbed or Dead Litter", "submissionValue": "RESORBED OR DEAD LITTER"}, {"conceptId": "C124294", "definition": "A term referring to the lack of definitive criteria for classification of a finding.", "preferredTerm": "Undetermined", "submissionValue": "UNDETERMINED"}]}