{"_links": {"parentPackage": {"href": "/mdr/ct/packages/sendct-2019-09-27", "title": "SEND Controlled Terminology Package 39 Effective 2019-09-27", "type": "Terminology"}, "priorVersion": {"href": "/mdr/ct/packages/sendct-2019-06-28/codelists/C158125", "title": "CDISC SEND Study Report Status Response Terminology", "type": "Code List"}, "rootItem": {"href": "/mdr/root/ct/sendct/codelists/C158125", "title": "Version-agnostic anchor resource for codelist C158125", "type": "Root Value Domain"}, "self": {"href": "/mdr/ct/packages/sendct-2019-09-27/codelists/C158125", "title": "CDISC SEND Study Report Status Response Terminology", "type": "Code List"}}, "conceptId": "C158125", "definition": "Terminology related to the status of the study report associated with the datasets.", "extensible": "true", "name": "Study Report Status Response", "preferredTerm": "CDISC SEND Study Report Status Response Terminology", "submissionValue": "STRPSTAT", "synonyms": ["Study Report Status Response"], "terms": [{"conceptId": "C158362", "definition": "A modified version of the final study report.", "preferredTerm": "Amended Final Study Report", "submissionValue": "AMENDED FINAL"}, {"conceptId": "C158359", "definition": "A preliminary version of the final study report.", "preferredTerm": "Draft Study Report", "submissionValue": "DRAFT"}, {"conceptId": "C158361", "definition": "A study report that has been signed by the study director after completion of the study.", "preferredTerm": "Final Study Report", "submissionValue": "FINAL"}, {"conceptId": "C158360", "definition": "A scheduled study report generated prior to completion of the study.", "preferredTerm": "Interim Study Report", "submissionValue": "INTERIM"}]}