{"_links": {"parentPackage": {"href": "/mdr/ct/packages/sendct-2019-09-27", "title": "SEND Controlled Terminology Package 39 Effective 2019-09-27", "type": "Terminology"}, "priorVersion": {"href": "/mdr/ct/packages/sendct-2019-06-28/codelists/C160930", "title": "CDISC SEND Chemical Challenge Agent Name Response Terminology", "type": "Code List"}, "rootItem": {"href": "/mdr/root/ct/sendct/codelists/C160930", "title": "Version-agnostic anchor resource for codelist C160930", "type": "Root Value Domain"}, "self": {"href": "/mdr/ct/packages/sendct-2019-09-27/codelists/C160930", "title": "CDISC SEND Chemical Challenge Agent Name Response Terminology", "type": "Code List"}}, "conceptId": "C160930", "definition": "Terminology related to the names of chemical challenge agents.", "extensible": "true", "name": "Chemical Challenge Agent Name Response", "preferredTerm": "CDISC SEND Chemical Challenge Agent Name Response Terminology", "submissionValue": "CHAGNAMR", "synonyms": ["Chemical Challenge Agent Name Response"], "terms": [{"conceptId": "C163573", "definition": "The fourth-generation (also known as Novichok or A series) nerve agent A-230.", "preferredTerm": "A-230", "submissionValue": "A-230", "synonyms": ["A230"]}, {"conceptId": "C163574", "definition": "The fourth-generation (also known as Novichok or A series) nerve agent A-232.", "preferredTerm": "A-232", "submissionValue": "A-232", "synonyms": ["A232"]}, {"conceptId": "C163575", "definition": "The fourth-generation (also known as Novichok or A series) nerve agent A-234.", "preferredTerm": "A-234", "submissionValue": "A-234", "synonyms": ["A234"]}, {"conceptId": "C163576", "definition": "The biotoxin abrin.", "preferredTerm": "Abrin", "submissionValue": "ABRIN"}, {"conceptId": "C163577", "definition": "The organophosphorus agent acephate.", "preferredTerm": "Acephate", "submissionValue": "ACEPHATE"}, {"conceptId": "C163578", "definition": "The carbamate agent aldicarb.", "preferredTerm": "Aldicarb", "submissionValue": "ALDICARB"}, {"conceptId": "C163579", "definition": "The biotoxin alpha-conotoxin Ac1.1a.", "preferredTerm": "Alpha-Conotoxin Ac1.1A", "submissionValue": "ALPHA-CONOTOXIN AC1.1A", "synonyms": ["Alpha-Ac1.1a"]}, {"conceptId": "C163580", "definition": "The biotoxin alpha-conotoxin CnIA.", "preferredTerm": "Alpha-Conotoxin CnIA", "submissionValue": "ALPHA-CONOTOXIN CNIA", "synonyms": ["Alpha-CnIA"]}, {"conceptId": "C163581", "definition": "The biotoxin alpha-conotoxin CnIB.", "preferredTerm": "Alpha-Conotoxin CnIB", "submissionValue": "ALPHA-CONOTOXIN CNIB", "synonyms": ["Alpha-CnIB"]}, {"conceptId": "C163582", "definition": "The biotoxin alpha-conotoxin GI.", "preferredTerm": "Alpha-Conotoxin GI", "submissionValue": "ALPHA-CONOTOXIN GI", "synonyms": ["Alpha-GI"]}, {"conceptId": "C163583", "definition": "The biotoxin alpha-conotoxin GIA.", "preferredTerm": "Alpha-Conotoxin GIA", "submissionValue": "ALPHA-CONOTOXIN GIA", "synonyms": ["Alpha-GIA"]}, {"conceptId": "C163584", "definition": "The biotoxin alpha-conotoxin MI.", "preferredTerm": "Alpha-Conotoxin MI", "submissionValue": "ALPHA-CONOTOXIN MI", "synonyms": ["Alpha-MI"]}, {"conceptId": "C163585", "definition": "The carbamate agent aminocarb.", "preferredTerm": "Aminocarb", "submissionValue": "AMINOCARB"}, {"conceptId": "C76698", "definition": "The chemical agent ammonia.", "preferredTerm": "Ammonia", "submissionValue": "AMMONIA"}, {"conceptId": "C28131", "definition": "The metal agent arsenic.", "preferredTerm": "Arsenic", "submissionValue": "ARSENIC"}, {"conceptId": "C163586", "definition": "The chemical agent arsine.", "preferredTerm": "Arsine", "submissionValue": "ARSINE"}, {"conceptId": "C73323", "definition": "The organophosphorus agent azamethiphos.", "preferredTerm": "Azamethiphos", "submissionValue": "AZAMETHIPHOS"}, {"conceptId": "C163587", "definition": "The organophosphorus agent azinphos-ethyl.", "preferredTerm": "Azinphos-Ethyl", "submissionValue": "AZINPHOS-ETHYL"}, {"conceptId": "C163588", "definition": "The organophosphorus agent azinphos-methyl.", "preferredTerm": "Azinphos-Methyl", "submissionValue": "AZINPHOS-METHYL"}, {"conceptId": "C61475", "definition": "The metal agent barium.", "preferredTerm": "Barium", "submissionValue": "BARIUM"}, {"conceptId": "C163589", "definition": "The carbamate agent bendiocarb.", "preferredTerm": "Bendiocarb", "submissionValue": "BENDIOCARB"}, {"conceptId": "C163590", "definition": "The carbamate agent benfuracarb.", "preferredTerm": "Benfuracarb", "submissionValue": "BENFURACARB"}, {"conceptId": "C163591", "definition": "The biotoxin botulinum neurotoxin A1.", "preferredTerm": "Botulinum Toxin Type A1", "submissionValue": "BOTULINUM NEUROTOXIN A1", "synonyms": ["BoNT/A1", "Clostridium botulinum Toxin A1"]}, {"conceptId": "C163592", "definition": "The biotoxin botulinum neurotoxin A2.", "preferredTerm": "Botulinum Toxin Type A2", "submissionValue": "BOTULINUM NEUROTOXIN A2", "synonyms": ["BoNT/A2", "Clostridium botulinum Toxin A2"]}, {"conceptId": "C163593", "definition": "The biotoxin botulinum neurotoxin A3.", "preferredTerm": "Botulinum Toxin Type A3", "submissionValue": "BOTULINUM NEUROTOXIN A3", "synonyms": ["BoNT/A3", "Clostridium botulinum Toxin A3"]}, {"conceptId": "C163594", "definition": "The biotoxin botulinum neurotoxin A4.", "preferredTerm": "Botulinum Toxin Type A4", "submissionValue": "BOTULINUM NEUROTOXIN A4", "synonyms": ["BoNT/A4", "Clostridium botulinum Toxin A4"]}, {"conceptId": "C163595", "definition": "The biotoxin botulinum neurotoxin A5.", "preferredTerm": "Botulinum Toxin Type A5", "submissionValue": "BOTULINUM NEUROTOXIN A5", "synonyms": ["BoNT/A5", "Clostridium botulinum Toxin A5"]}, {"conceptId": "C163596", "definition": "The biotoxin botulinum neurotoxin A6.", "preferredTerm": "Botulinum Toxin Type A6", "submissionValue": "BOTULINUM NEUROTOXIN A6", "synonyms": ["BoNT/A6", "Clostridium botulinum Toxin A6"]}, {"conceptId": "C163597", "definition": "The biotoxin botulinum neurotoxin A7.", "preferredTerm": "Botulinum Toxin Type A7", "submissionValue": "BOTULINUM NEUROTOXIN A7", "synonyms": ["BoNT/A7", "Clostridium botulinum Toxin A7"]}, {"conceptId": "C163598", "definition": "The biotoxin botulinum neurotoxin A8.", "preferredTerm": "Botulinum Toxin Type A8", "submissionValue": "BOTULINUM NEUROTOXIN A8", "synonyms": ["BoNT/A8", "Clostridium botulinum Toxin A8"]}, {"conceptId": "C163599", "definition": "The biotoxin botulinum neurotoxin B1.", "preferredTerm": "Botulinum Toxin Type B1", "submissionValue": "BOTULINUM NEUROTOXIN B1", "synonyms": ["BoNT/B1", "Clostridium botulinum Toxin B1"]}, {"conceptId": "C163600", "definition": "The biotoxin botulinum neurotoxin B2.", "preferredTerm": "Botulinum Toxin Type B2", "submissionValue": "BOTULINUM NEUROTOXIN B2", "synonyms": ["BoNT/B2", "Clostridium botulinum Toxin B2"]}, {"conceptId": "C163601", "definition": "The biotoxin botulinum neurotoxin B3.", "preferredTerm": "Botulinum Toxin Type B3", "submissionValue": "BOTULINUM NEUROTOXIN B3", "synonyms": ["BoNT/B3", "Clostridium botulinum Toxin B3"]}, {"conceptId": "C163602", "definition": "The biotoxin botulinum neurotoxin B4.", "preferredTerm": "Botulinum Toxin Type B4", "submissionValue": "BOTULINUM NEUROTOXIN B4", "synonyms": ["BoNT/B4", "Clostridium botulinum Toxin B4"]}, {"conceptId": "C163603", "definition": "The biotoxin botulinum neurotoxin B5.", "preferredTerm": "Botulinum Toxin Type B5", "submissionValue": "BOTULINUM NEUROTOXIN B5", "synonyms": ["BoNT/B5", "Clostridium botulinum Toxin B5"]}, {"conceptId": "C163604", "definition": "The biotoxin botulinum neurotoxin B6.", "preferredTerm": "Botulinum Toxin Type B6", "submissionValue": "BOTULINUM NEUROTOXIN B6", "synonyms": ["BoNT/B6", "Clostridium botulinum Toxin B6"]}, {"conceptId": "C163605", "definition": "The biotoxin botulinum neurotoxin B7.", "preferredTerm": "Botulinum Toxin Type B7", "submissionValue": "BOTULINUM NEUROTOXIN B7", "synonyms": ["BoNT/B7", "Clostridium botulinum Toxin B7"]}, {"conceptId": "C163606", "definition": "The biotoxin botulinum neurotoxin B8.", "preferredTerm": "Botulinum Toxin Type B8", "submissionValue": "BOTULINUM NEUROTOXIN B8", "synonyms": ["BoNT/B8", "Clostridium botulinum Toxin B8"]}, {"conceptId": "C163607", "definition": "The biotoxin botulinum neurotoxin C1.", "preferredTerm": "Botulinum Toxin Type C1", "submissionValue": "BOTULINUM NEUROTOXIN C1", "synonyms": ["BoNT/C1", "Clostridium botulinum Toxin C1"]}, {"conceptId": "C163608", "definition": "The biotoxin botulinum neurotoxin CD.", "preferredTerm": "Botulinum Toxin Type Cd", "submissionValue": "BOTULINUM NEUROTOXIN CD", "synonyms": ["BoNT/CD", "Clostridium botulinum Toxin CD"]}, {"conceptId": "C163035", "definition": "The biotoxin botulinum neurotoxin D.", "preferredTerm": "Botulinum Toxin Type D", "submissionValue": "BOTULINUM NEUROTOXIN D", "synonyms": ["BoNT/D", "Clostridium botulinum Toxin D"]}, {"conceptId": "C163609", "definition": "The biotoxin botulinum neurotoxin DC.", "preferredTerm": "Botulinum Toxin Type Dc", "submissionValue": "BOTULINUM NEUROTOXIN DC", "synonyms": ["BoNT/DC", "Clostridium botulinum Toxin DC"]}, {"conceptId": "C163610", "definition": "The biotoxin botulinum neurotoxin E1.", "preferredTerm": "Botulinum Toxin Type E1", "submissionValue": "BOTULINUM NEUROTOXIN E1", "synonyms": ["BoNT/E1", "Clostridium botulinum Toxin E1"]}, {"conceptId": "C163611", "definition": "The biotoxin botulinum neurotoxin E10.", "preferredTerm": "Botulinum Toxin Type E10", "submissionValue": "BOTULINUM NEUROTOXIN E10", "synonyms": ["BoNT/E10", "Clostridium botulinum Toxin E10"]}, {"conceptId": "C163612", "definition": "The biotoxin botulinum neurotoxin E11.", "preferredTerm": "Botulinum Toxin Type E11", "submissionValue": "BOTULINUM NEUROTOXIN E11", "synonyms": ["BoNT/E11", "Clostridium botulinum Toxin E11"]}, {"conceptId": "C163613", "definition": "The biotoxin botulinum neurotoxin E12.", "preferredTerm": "Botulinum Toxin Type E12", "submissionValue": "BOTULINUM NEUROTOXIN E12", "synonyms": ["BoNT/E12", "Clostridium botulinum Toxin E12"]}, {"conceptId": "C163614", "definition": "The biotoxin botulinum neurotoxin E2.", "preferredTerm": "Botulinum Toxin Type E2", "submissionValue": "BOTULINUM NEUROTOXIN E2", "synonyms": ["BoNT/E2", "Clostridium botulinum Toxin E2"]}, {"conceptId": "C163615", "definition": "The biotoxin botulinum neurotoxin E3.", "preferredTerm": "Botulinum Toxin Type E3", "submissionValue": "BOTULINUM NEUROTOXIN E3", "synonyms": ["BoNT/E3", "Clostridium botulinum Toxin E3"]}, {"conceptId": "C163616", "definition": "The biotoxin botulinum neurotoxin E4.", "preferredTerm": "Botulinum Toxin Type E4", "submissionValue": "BOTULINUM NEUROTOXIN E4", "synonyms": ["BoNT/E4", "Clostridium botulinum Toxin E4"]}, {"conceptId": "C163617", "definition": "The biotoxin botulinum neurotoxin E5.", "preferredTerm": "Botulinum Toxin Type E5", "submissionValue": "BOTULINUM NEUROTOXIN E5", "synonyms": ["BoNT/E5", "Clostridium botulinum Toxin E5"]}, {"conceptId": "C163618", "definition": "The biotoxin botulinum neurotoxin E6.", "preferredTerm": "Botulinum Toxin Type E6", "submissionValue": "BOTULINUM NEUROTOXIN E6", "synonyms": ["BoNT/E6", "Clostridium botulinum Toxin E6"]}, {"conceptId": "C163619", "definition": "The biotoxin botulinum neurotoxin E7.", "preferredTerm": "Botulinum Toxin Type E7", "submissionValue": "BOTULINUM NEUROTOXIN E7", "synonyms": ["BoNT/E7", "Clostridium botulinum Toxin E7"]}, {"conceptId": "C163620", "definition": "The biotoxin botulinum neurotoxin E8.", "preferredTerm": "Botulinum Toxin Type E8", "submissionValue": "BOTULINUM NEUROTOXIN E8", "synonyms": ["BoNT/E8", "Clostridium botulinum Toxin E8"]}, {"conceptId": "C163621", "definition": "The biotoxin botulinum neurotoxin E9.", "preferredTerm": "Botulinum Toxin Type E9", "submissionValue": "BOTULINUM NEUROTOXIN E9", "synonyms": ["BoNT/E9", "Clostridium botulinum Toxin E9"]}, {"conceptId": "C163622", "definition": "The biotoxin botulinum neurotoxin F1.", "preferredTerm": "Botulinum Toxin Type F1", "submissionValue": "BOTULINUM NEUROTOXIN F1", "synonyms": ["BoNT/F1", "Clostridium botulinum Toxin F1"]}, {"conceptId": "C163623", "definition": "The biotoxin botulinum neurotoxin F2.", "preferredTerm": "Botulinum Toxin Type F2", "submissionValue": "BOTULINUM NEUROTOXIN F2", "synonyms": ["BoNT/F2", "Clostridium botulinum Toxin F2"]}, {"conceptId": "C163624", "definition": "The biotoxin botulinum neurotoxin F3.", "preferredTerm": "Botulinum Toxin Type F3", "submissionValue": "BOTULINUM NEUROTOXIN F3", "synonyms": ["BoNT/F3", "Clostridium botulinum Toxin F3"]}, {"conceptId": "C163625", "definition": "The biotoxin botulinum neurotoxin F4.", "preferredTerm": "Botulinum Toxin Type F4", "submissionValue": "BOTULINUM NEUROTOXIN F4", "synonyms": ["BoNT/F4", "Clostridium botulinum Toxin F4"]}, {"conceptId": "C163626", "definition": "The biotoxin botulinum neurotoxin F5.", "preferredTerm": "Botulinum Toxin Type F5", "submissionValue": "BOTULINUM NEUROTOXIN F5", "synonyms": ["BoNT/F5", "Clostridium botulinum Toxin F5"]}, {"conceptId": "C163627", "definition": "The biotoxin botulinum neurotoxin F6.", "preferredTerm": "Botulinum Toxin Type F6", "submissionValue": "BOTULINUM NEUROTOXIN F6", "synonyms": ["BoNT/F6", "Clostridium botulinum Toxin F6"]}, {"conceptId": "C163628", "definition": "The biotoxin botulinum neurotoxin F7.", "preferredTerm": "Botulinum Toxin Type F7", "submissionValue": "BOTULINUM NEUROTOXIN F7", "synonyms": ["BoNT/F7", "Clostridium botulinum Toxin F7"]}, {"conceptId": "C163629", "definition": "The biotoxin botulinum neurotoxin F8.", "preferredTerm": "Botulinum Toxin Type F8", "submissionValue": "BOTULINUM NEUROTOXIN F8", "synonyms": ["BoNT/F8", "Clostridium botulinum Toxin F8"]}, {"conceptId": "C163630", "definition": "The biotoxin botulinum neurotoxin FA(H).", "preferredTerm": "Botulinum Toxin Type H", "submissionValue": "BOTULINUM NEUROTOXIN FA(H)", "synonyms": ["BoNT/FA", "BoNT/FA(H)", "BoNT/H", "BoNT/HA", "Botulinum Neurotoxin FA", "Botulinum Neurotoxin H", "Botulinum Neurotoxin HA", "Clostridium botulinum Toxin FA", "Clostridium botulinum Toxin FA(H)", "Clostridium botulinum Toxin H", "Clostridium botulinum Toxin HA"]}, {"conceptId": "C163631", "definition": "The biotoxin botulinum neurotoxin G.", "preferredTerm": "Botulinum Toxin Type G", "submissionValue": "BOTULINUM NEUROTOXIN G", "synonyms": ["BoNT/G", "Clostridium botulinum Toxin G"]}, {"conceptId": "C163632", "definition": "The chemical agent bromine.", "preferredTerm": "Bromine", "submissionValue": "BROMINE"}, {"conceptId": "C163633", "definition": "The organophosphorus agent bromophos.", "preferredTerm": "Bromophos", "submissionValue": "BROMOPHOS"}, {"conceptId": "C163634", "definition": "The carbamate agent butocarboxim.", "preferredTerm": "Butocarboxim", "submissionValue": "BUTOCARBOXIM"}, {"conceptId": "C163635", "definition": "The organophosphorus agent cadusafos.", "preferredTerm": "Cadusafos", "submissionValue": "CADUSAFOS"}, {"conceptId": "C76389", "definition": "The carbamate agent carbaryl.", "preferredTerm": "Carbaril", "submissionValue": "CARBARYL"}, {"conceptId": "C163636", "definition": "The carbamate agent carbofuran.", "preferredTerm": "Carbofuran", "submissionValue": "CARBOFURAN"}, {"conceptId": "C163637", "definition": "The organophosphorus agent carbophenothion.", "preferredTerm": "Carbophenothion", "submissionValue": "CARBOPHENOTHION"}, {"conceptId": "C163638", "definition": "The carbamate agent carbosulfan.", "preferredTerm": "Carbosulfan", "submissionValue": "CARBOSULFAN"}, {"conceptId": "C163639", "definition": "The organophosphorus agent chlorethoxyphos.", "preferredTerm": "Chlorethoxyfos", "submissionValue": "CHLORETHOXYPHOS", "synonyms": ["Chlorethoxyfos"]}, {"conceptId": "C80597", "definition": "The organophosphorus agent chlorfenvinphos.", "preferredTerm": "Clorfenvinfos", "submissionValue": "CHLORFENVINPHOS"}, {"conceptId": "C28140", "definition": "The chemical agent chlorine.", "preferredTerm": "Chlorine", "submissionValue": "CHLORINE"}, {"conceptId": "C163640", "definition": "The chemical agent chloropicrin.", "preferredTerm": "Chloropicrin", "submissionValue": "CHLOROPICRIN"}, {"conceptId": "C163641", "definition": "The organophosphorus agent chlorpyrifos.", "preferredTerm": "Chlorpyrifos", "submissionValue": "CHLORPYRIFOS"}, {"conceptId": "C163642", "definition": "The organophosphorus agent chlorpyriphos-methyl.", "preferredTerm": "Chlorpyrifos-methyl", "submissionValue": "CHLORPYRIPHOS-METHYL"}, {"conceptId": "C76867", "definition": "The organophosphorus agent coumaphos.", "preferredTerm": "Coumaphos", "submissionValue": "COUMAPHOS"}, {"conceptId": "C80598", "definition": "The organophosphorus agent crotoxyphos.", "preferredTerm": "Crotoxyfos", "submissionValue": "CROTOXYPHOS"}, {"conceptId": "C163643", "definition": "The chemical agent cyanogen chloride.", "preferredTerm": "Cyanogen Chloride", "submissionValue": "CYANOGEN CHLORIDE"}, {"conceptId": "C163644", "definition": "The organophosphorus agent cyanophos.", "preferredTerm": "Cyanophos", "submissionValue": "CYANOPHOS"}, {"conceptId": "C163645", "definition": "The organophosphorus agent demeton-o.", "preferredTerm": "Demeton-O", "submissionValue": "DEMETON-O"}, {"conceptId": "C1068", "definition": "The biotoxin diacetoxyscirpenol.", "preferredTerm": "Anguidine", "submissionValue": "DIACETOXYSCIRPENOL"}, {"conceptId": "C163646", "definition": "The organophosphorus agent diazinon.", "preferredTerm": "Diazinon", "submissionValue": "DIAZINON"}, {"conceptId": "C76871", "definition": "The organophosphorus agent dichlorvos.", "preferredTerm": "Dichlorvos", "submissionValue": "DICHLORVOS"}, {"conceptId": "C163647", "definition": "The organophosphorus agent dicrotophos.", "preferredTerm": "Dicrotophos", "submissionValue": "DICROTOPHOS"}, {"conceptId": "C163648", "definition": "The organophosphorus agent diisopropyl fluorophosphate.", "preferredTerm": "Diisopropyl Fluorophosphate", "submissionValue": "DIISOPROPYL FLUOROPHOSPHATE", "synonyms": ["DFP"]}, {"conceptId": "C163649", "definition": "The organophosphorus agent dimethoate.", "preferredTerm": "Dimethoate", "submissionValue": "DIMETHOATE"}, {"conceptId": "C163650", "definition": "The carbamate agent dimetilan.", "preferredTerm": "Dimetilan", "submissionValue": "DIMETILAN"}, {"conceptId": "C163651", "definition": "The chemical agent diphosgene.", "preferredTerm": "Diphosgene", "submissionValue": "DIPHOSGENE"}, {"conceptId": "C163652", "definition": "The organophosphorus agent disulfoton.", "preferredTerm": "Disulfoton", "submissionValue": "DISULFOTON"}, {"conceptId": "C163653", "definition": "The biotoxin epsilon toxin.", "preferredTerm": "Clostridium perfringens Epsilon Toxin", "submissionValue": "EPSILON TOXIN", "synonyms": ["Clostridium perfringens Epsilon Toxin"]}, {"conceptId": "C163654", "definition": "The carbamate agent ethiofencarb.", "preferredTerm": "Ethiofencarb", "submissionValue": "ETHIOFENCARB", "synonyms": ["Croneton"]}, {"conceptId": "C163655", "definition": "The organophosphorus agent ethion.", "preferredTerm": "Ethion", "submissionValue": "ETHION"}, {"conceptId": "C83710", "definition": "The organophosphorus agent famphur.", "preferredTerm": "Famphur", "submissionValue": "FAMPHUR"}, {"conceptId": "C163656", "definition": "The organophosphorus agent fenamiphos.", "preferredTerm": "Fenamiphos", "submissionValue": "FENAMIPHOS"}, {"conceptId": "C65655", "definition": "The organophosphorus agent fenitrothion.", "preferredTerm": "Fenitrothion", "submissionValue": "FENITROTHION"}, {"conceptId": "C163657", "definition": "The carbamate agent fenobucarb.", "preferredTerm": "Fenobucarb", "submissionValue": "FENOBUCARB", "synonyms": ["BPMC"]}, {"conceptId": "C163658", "definition": "The carbamate agent fenoxycarb.", "preferredTerm": "Fenoxycarb", "submissionValue": "FENOXYCARB"}, {"conceptId": "C76873", "definition": "The organophosphorus agent fenthion.", "preferredTerm": "Fenthion", "submissionValue": "FENTHION"}, {"conceptId": "C163659", "definition": "The organophosphorus agent fonofos.", "preferredTerm": "Fonofos", "submissionValue": "FONOFOS"}, {"conceptId": "C163660", "definition": "The carbamate agent formetanate.", "preferredTerm": "Formetanate", "submissionValue": "FORMETANATE"}, {"conceptId": "C163661", "definition": "The organophosphorus agent formothion.", "preferredTerm": "Formothion", "submissionValue": "FORMOTHION"}, {"conceptId": "C163662", "definition": "The carbamate agent formparanate.", "preferredTerm": "Formparanate", "submissionValue": "FORMPARANATE"}, {"conceptId": "C161525", "definition": "The G-series nerve agent GA.", "preferredTerm": "G-Series Nerve Agent GA", "submissionValue": "G-SERIES NERVE AGENT GA", "synonyms": ["GA", "Tabun"]}, {"conceptId": "C161526", "definition": "The G-series nerve agent GB.", "preferredTerm": "G-Series Nerve Agent GB", "submissionValue": "G-SERIES NERVE AGENT GB", "synonyms": ["GB", "Sarin"]}, {"conceptId": "C161527", "definition": "The G-series nerve agent GC.", "preferredTerm": "G-Series Nerve Agent GC", "submissionValue": "G-SERIES NERVE AGENT GC", "synonyms": ["Chlorosarin", "GC"]}, {"conceptId": "C161528", "definition": "The G-series nerve agent GD.", "preferredTerm": "G-Series Nerve Agent GD", "submissionValue": "G-SERIES NERVE AGENT GD", "synonyms": ["GD", "Soman"]}, {"conceptId": "C161529", "definition": "The G-series nerve agent GE.", "preferredTerm": "G-Series Nerve Agent GE", "submissionValue": "G-SERIES NERVE AGENT GE", "synonyms": ["Ethylsarin", "GE"]}, {"conceptId": "C161530", "definition": "The G-series nerve agent GF.", "preferredTerm": "G-Series Nerve Agent GF", "submissionValue": "G-SERIES NERVE AGENT GF", "synonyms": ["Cyclosarin", "GF"]}, {"conceptId": "C163663", "definition": "The organophosphorus agent glufosinate ammonium.", "preferredTerm": "Glufosinate-Ammonium", "submissionValue": "GLUFOSINATE AMMONIUM"}, {"conceptId": "C163664", "definition": "The organophosphorus agent glyphosate.", "preferredTerm": "Glyphosate", "submissionValue": "GLYPHOSATE"}, {"conceptId": "C163665", "definition": "The organophosphorus agent glyphosine.", "preferredTerm": "Glyphosine", "submissionValue": "GLYPHOSINE"}, {"conceptId": "C76716", "definition": "The chemical agent hydrogen chloride.", "preferredTerm": "Hydrochloric Acid", "submissionValue": "HYDROGEN CHLORIDE"}, {"conceptId": "C77470", "definition": "The chemical agent hydrogen cyanide.", "preferredTerm": "Hydrogen Cyanide", "submissionValue": "HYDROGEN CYANIDE"}, {"conceptId": "C163666", "definition": "The chemical agent hydrogen sulfide.", "preferredTerm": "Hydrogen Sulfide", "submissionValue": "HYDROGEN SULFIDE"}, {"conceptId": "C163667", "definition": "The organophosphorus agent isazophos.", "preferredTerm": "Isazophos", "submissionValue": "ISAZOPHOS", "synonyms": ["Isazofos"]}, {"conceptId": "C163668", "definition": "The organophosphorus agent isofenphos.", "preferredTerm": "Isofenphos", "submissionValue": "ISOFENPHOS"}, {"conceptId": "C163669", "definition": "The carbamate agent isoprocarb.", "preferredTerm": "Isoprocarb", "submissionValue": "ISOPROCARB"}, {"conceptId": "C163670", "definition": "The carbamate agent m-cumenyl methylcarbamate.", "preferredTerm": "M-Cumenyl Methylcarbamate", "submissionValue": "M-CUMENYL METHYLCARBAMATE"}, {"conceptId": "C47593", "definition": "The organophosphorus agent malathion.", "preferredTerm": "Malathion", "submissionValue": "MALATHION"}, {"conceptId": "C66842", "definition": "The metal agent mercury.", "preferredTerm": "Mercury", "submissionValue": "MERCURY"}, {"conceptId": "C163671", "definition": "The organophosphorus agent methamidophos.", "preferredTerm": "Methamidophos", "submissionValue": "METHAMIDOPHOS"}, {"conceptId": "C163672", "definition": "The organophosphorus agent methidathion.", "preferredTerm": "Methidathion", "submissionValue": "METHIDATHION"}, {"conceptId": "C163673", "definition": "The carbamate agent methiocarb.", "preferredTerm": "Methiocarb", "submissionValue": "METHIOCARB"}, {"conceptId": "C163674", "definition": "The carbamate agent methomyl.", "preferredTerm": "Methomyl", "submissionValue": "METHOMYL"}, {"conceptId": "C163675", "definition": "The chemical agent methyl bromide.", "preferredTerm": "Methyl Bromide", "submissionValue": "METHYL BROMIDE"}, {"conceptId": "C163676", "definition": "The chemical agent methyl isocyanate.", "preferredTerm": "Methyl Isocyanate", "submissionValue": "METHYL ISOCYANATE"}, {"conceptId": "C163677", "definition": "The organophosphorus agent methyl parathion.", "preferredTerm": "Methyl Parathion", "submissionValue": "METHYL PARATHION"}, {"conceptId": "C163678", "definition": "The carbamate agent metolcarb.", "preferredTerm": "Metolcarb", "submissionValue": "METOLCARB"}, {"conceptId": "C163679", "definition": "The organophosphorus agent mevinphos.", "preferredTerm": "Mevinphos", "submissionValue": "MEVINPHOS"}, {"conceptId": "C163680", "definition": "The carbamate agent mexacarbate.", "preferredTerm": "Mexacarbate", "submissionValue": "MEXACARBATE"}, {"conceptId": "C163681", "definition": "The organophosphorus agent monocrotophos.", "preferredTerm": "Monocrotophos", "submissionValue": "MONOCROTOPHOS"}, {"conceptId": "C161523", "definition": "The nitrogen mustard vesicant HN-1.", "preferredTerm": "Nitrogen Mustard HN-1", "submissionValue": "NITROGEN MUSTARD HN-1", "synonyms": ["HN1"]}, {"conceptId": "C62056", "definition": "The nitrogen mustard vesicant HN-2.", "preferredTerm": "Mechlorethamine", "submissionValue": "NITROGEN MUSTARD HN-2", "synonyms": ["HN2"]}, {"conceptId": "C161524", "definition": "The nitrogen mustard vesicant HN-3.", "preferredTerm": "Nitrogen Mustard HN-3", "submissionValue": "NITROGEN MUSTARD HN-3", "synonyms": ["HN3"]}, {"conceptId": "C163682", "definition": "The organophosphorus agent omethoate.", "preferredTerm": "Omethoate", "submissionValue": "OMETHOATE"}, {"conceptId": "C163683", "definition": "The chemical agent osmium tetroxide.", "preferredTerm": "Osmium Tetroxide", "submissionValue": "OSMIUM TETROXIDE"}, {"conceptId": "C163684", "definition": "The carbamate agent oxamyl.", "preferredTerm": "Oxamyl", "submissionValue": "OXAMYL"}, {"conceptId": "C99562", "definition": "The organophosphorus agent paraoxon.", "preferredTerm": "Paraoxon", "submissionValue": "PARAOXON"}, {"conceptId": "C163685", "definition": "The organophosphorus agent parathion.", "preferredTerm": "Parathion", "submissionValue": "PARATHION"}, {"conceptId": "C163686", "definition": "The organophosphorus agent phenthoate.", "preferredTerm": "Phenthoate", "submissionValue": "PHENTHOATE"}, {"conceptId": "C163687", "definition": "The organophosphorus agent phorate.", "preferredTerm": "Phorate", "submissionValue": "PHORATE"}, {"conceptId": "C163688", "definition": "The chemical agent phosgene.", "preferredTerm": "Phosgene", "submissionValue": "PHOSGENE"}, {"conceptId": "C163689", "definition": "The chemical agent phosgene oxime.", "preferredTerm": "Phosgene Oxime", "submissionValue": "PHOSGENE OXIME"}, {"conceptId": "C76877", "definition": "The organophosphorus agent phosmet.", "preferredTerm": "Phosmet", "submissionValue": "PHOSMET"}, {"conceptId": "C163690", "definition": "The organophosphorus agent phosphamidon.", "preferredTerm": "Phosphamidon", "submissionValue": "PHOSPHAMIDON"}, {"conceptId": "C163691", "definition": "The chemical agent phosphine.", "preferredTerm": "Phosphine", "submissionValue": "PHOSPHINE"}, {"conceptId": "C80605", "definition": "The organophosphorus agent phoxin.", "preferredTerm": "Phoxim", "submissionValue": "PHOXIN"}, {"conceptId": "C163693", "definition": "The carbamate agent pirimicarb.", "preferredTerm": "Pirimicarb", "submissionValue": "PIRIMICARB"}, {"conceptId": "C163694", "definition": "The chemical agent potassium cyanide.", "preferredTerm": "Potassium Cyanide", "submissionValue": "POTASSIUM CYANIDE"}, {"conceptId": "C163695", "definition": "The carbamate agent promecarb.", "preferredTerm": "Promecarb", "submissionValue": "PROMECARB"}, {"conceptId": "C76878", "definition": "The organophosphorus agent propetamphos.", "preferredTerm": "Propetamphos", "submissionValue": "PROPETAMPHOS"}, {"conceptId": "C163696", "definition": "The organophosphorus agent profenofos.", "preferredTerm": "Prophenofos", "submissionValue": "PROPHENOFOS", "synonyms": ["Prophenofos"]}, {"conceptId": "C82221", "definition": "The carbamate agent propoxur.", "preferredTerm": "Propoxur", "submissionValue": "PROPOXUR"}, {"conceptId": "C163697", "definition": "The organophosphorus agent quinalphos.", "preferredTerm": "Quinalphos", "submissionValue": "QUINALPHOS"}, {"conceptId": "C809", "definition": "The biotoxin ricin.", "preferredTerm": "Ricin", "submissionValue": "RICIN"}, {"conceptId": "C76879", "definition": "The organophosphorus agent ronnel.", "preferredTerm": "Ronnel", "submissionValue": "RONNEL"}, {"conceptId": "C76087", "definition": "The chemical agent rotenone.", "preferredTerm": "Rotenone", "submissionValue": "ROTENONE"}, {"conceptId": "C163698", "definition": "The biotoxin saxitoxin.", "preferredTerm": "Saxitoxin", "submissionValue": "SAXITOXIN"}, {"conceptId": "C163699", "definition": "The chemical agent sodium cyanide.", "preferredTerm": "Sodium Cyanide", "submissionValue": "SODIUM CYANIDE"}, {"conceptId": "C163700", "definition": "The chemical agent sodium monofluoroacetate.", "preferredTerm": "Sodium Monofluoroacetate", "submissionValue": "SODIUM MONOFLUOROACETATE", "synonyms": ["Sodium Fluoroacetate"]}, {"conceptId": "C1083", "definition": "The biotoxin Staphylococcal enterotoxin A.", "preferredTerm": "Staphylococcal Enterotoxin A", "submissionValue": "STAPHYLOCOCCAL ENTEROTOXIN A", "synonyms": ["SEA"]}, {"conceptId": "C1084", "definition": "The biotoxin Staphylococcal enterotoxin B.", "preferredTerm": "Staphylococcal Enterotoxin B", "submissionValue": "STAPHYLOCOCCAL ENTEROTOXIN B", "synonyms": ["SEB"]}, {"conceptId": "C1085", "definition": "The biotoxin Staphylococcal enterotoxin C.", "preferredTerm": "Staphylococcal Enterotoxin C", "submissionValue": "STAPHYLOCOCCAL ENTEROTOXIN C", "synonyms": ["SEC"]}, {"conceptId": "C163701", "definition": "The biotoxin Staphylococcal enterotoxin D.", "preferredTerm": "Staphylococcal Enterotoxin D", "submissionValue": "STAPHYLOCOCCAL ENTEROTOXIN D", "synonyms": ["SED"]}, {"conceptId": "C163702", "definition": "The biotoxin Staphylococcal enterotoxin E.", "preferredTerm": "Staphylococcal Enterotoxin E", "submissionValue": "STAPHYLOCOCCAL ENTEROTOXIN E", "synonyms": ["SEE"]}, {"conceptId": "C163703", "definition": "The chemical agent stibine.", "preferredTerm": "Stibine", "submissionValue": "STIBINE"}, {"conceptId": "C163704", "definition": "The organophosphorus agent sulfotep.", "preferredTerm": "Sulfotep", "submissionValue": "SULFOTEP"}, {"conceptId": "C44406", "definition": "The sulfur mustard vesicant HD.", "preferredTerm": "Mustard Gas", "submissionValue": "SULFUR MUSTARD HD", "synonyms": ["Agent HD", "Distilled Mustard", "Mustard Gas", "SM"]}, {"conceptId": "C163705", "definition": "The organophosphorus agent sulprofos.", "preferredTerm": "Sulprofos", "submissionValue": "SULPROFOS"}, {"conceptId": "C163706", "definition": "The biotoxin T-2 toxin.", "preferredTerm": "T-2 Toxin", "submissionValue": "T-2 TOXIN"}, {"conceptId": "C163707", "definition": "The organophosphorus agent terbufos.", "preferredTerm": "Terbufos", "submissionValue": "TERBUFOS"}, {"conceptId": "C163708", "definition": "The organophosphorus agent tetrachlorvinphos.", "preferredTerm": "Tetrachlorvinphos", "submissionValue": "TETRACHLORVINPHOS"}, {"conceptId": "C163709", "definition": "The organophosphorus agent tetraethyl pyrophosphate.", "preferredTerm": "Tetraethyl Pyrophosphate", "submissionValue": "TETRAETHYL PYROPHOSPHATE", "synonyms": ["TEPP"]}, {"conceptId": "C163710", "definition": "The chemical agent tetramethylenedisulfotetramine.", "preferredTerm": "Tetramethylenedisulfotetramine", "submissionValue": "TETRAMETHYLENEDISULFOTETRAMINE", "synonyms": ["TETS"]}, {"conceptId": "C78845", "definition": "The biotoxin tetrodotoxin.", "preferredTerm": "Tetrodotoxin", "submissionValue": "TETRODOTOXIN", "synonyms": ["TTX"]}, {"conceptId": "C95188", "definition": "The metal agent thallium.", "preferredTerm": "Thallium", "submissionValue": "THALLIUM"}, {"conceptId": "C163711", "definition": "The carbamate agent thiofanox.", "preferredTerm": "Thiofanox", "submissionValue": "THIOFANOX"}, {"conceptId": "C163712", "definition": "The organophosphorus agent triazophos.", "preferredTerm": "Triazophos", "submissionValue": "TRIAZOPHOS"}, {"conceptId": "C84225", "definition": "The organophosphorus agent trichlorfon.", "preferredTerm": "Trichlorfon", "submissionValue": "TRICHLORFON", "synonyms": ["Metrifonate"]}, {"conceptId": "C163713", "definition": "The carbamate agent trimethacarb.", "preferredTerm": "2,3,5-Trimethacarb", "submissionValue": "TRIMETHACARB", "synonyms": ["2,3,5-Trimethylphenyl Methylcarbamate"]}, {"conceptId": "C161533", "definition": "The V-series nerve agent CVX.", "preferredTerm": "V-Series Nerve Agent CVX", "submissionValue": "V-SERIES NERVE AGENT CVX", "synonyms": ["CH VX", "CVX", "Chinese VX"]}, {"conceptId": "C161532", "definition": "The V-series nerve agent RVX.", "preferredTerm": "V-Series Nerve Agent RVX", "submissionValue": "V-SERIES NERVE AGENT RVX", "synonyms": ["RVX", "Russian VX", "rVX"]}, {"conceptId": "C161534", "definition": "The V-series nerve agent VE.", "preferredTerm": "V-Series Nerve Agent VE", "submissionValue": "V-SERIES NERVE AGENT VE", "synonyms": ["VE"]}, {"conceptId": "C161535", "definition": "The V-series nerve agent VG.", "preferredTerm": "V-Series Nerve Agent VG", "submissionValue": "V-SERIES NERVE AGENT VG", "synonyms": ["VG"]}, {"conceptId": "C161536", "definition": "The V-series nerve agent VM.", "preferredTerm": "V-Series Nerve Agent VM", "submissionValue": "V-SERIES NERVE AGENT VM", "synonyms": ["VM"]}, {"conceptId": "C161537", "definition": "The V-series nerve agent VP.", "preferredTerm": "V-Series Nerve Agent VP", "submissionValue": "V-SERIES NERVE AGENT VP", "synonyms": ["VP"]}, {"conceptId": "C161538", "definition": "The V-series nerve agent VS.", "preferredTerm": "V-Series Nerve Agent VS", "submissionValue": "V-SERIES NERVE AGENT VS", "synonyms": ["VS"]}, {"conceptId": "C161531", "definition": "The V-series nerve agent VX.", "preferredTerm": "V-Series Nerve Agent VX", "submissionValue": "V-SERIES NERVE AGENT VX", "synonyms": ["VX"]}, {"conceptId": "C163714", "definition": "The carbamate agent XMC.", "preferredTerm": "XMC", "submissionValue": "XMC", "synonyms": ["3,5-Xylyl-methylcarbamate"]}, {"conceptId": "C163715", "definition": "The carbamate agent xylylcarb.", "preferredTerm": "Xylylcarb", "submissionValue": "XYLYLCARB"}]}