{"_links": {"parentPackage": {"href": "/mdr/ct/packages/adamct-2020-06-26", "title": "ADaM Controlled Terminology Package 42 Effective 2020-06-26", "type": "Terminology"}, "priorVersion": {"href": "/mdr/ct/packages/adamct-2020-03-27/codelists/C124296", "title": "CDISC ADaM Subject Trial Status Terminology", "type": "Code List"}, "rootItem": {"href": "/mdr/root/ct/adamct/codelists/C124296", "title": "Version-agnostic anchor resource for codelist C124296", "type": "Root Value Domain"}, "self": {"href": "/mdr/ct/packages/adamct-2020-06-26/codelists/C124296", "title": "CDISC ADaM Subject Trial Status Terminology", "type": "Code List"}}, "conceptId": "C124296", "definition": "Indicates the status of the subject in the trial.", "extensible": "true", "name": "Subject Trial Status", "preferredTerm": "CDISC ADaM Subject Trial Status Terminology", "submissionValue": "SBJTSTAT", "synonyms": ["Subject Trial Status"], "terms": [{"conceptId": "C25250", "definition": "To possess every necessary or normal part or component or step; having come or been brought to a conclusion. (NCI)", "preferredTerm": "Complete", "submissionValue": "COMPLETED"}, {"conceptId": "C25484", "definition": "To stop or end, permanently or temporarily.", "preferredTerm": "Discontinue", "submissionValue": "DISCONTINUED"}, {"conceptId": "C53279", "definition": "Remain in force or carry on without letup; keep or maintain in unaltered condition; exist in time or space without stop or interruption. (NCI)", "preferredTerm": "Continue", "submissionValue": "ONGOING", "synonyms": ["Continuous"]}]}