{"_links": {"parentPackage": {"href": "/mdr/ct/packages/sendct-2017-09-29", "title": "SEND Controlled Terminology Package 31 Effective 2017-09-29", "type": "Terminology"}, "priorVersion": {"href": "/mdr/ct/packages/sendct-2017-06-30/codelists/C132321", "title": "CDISC SEND Within Normal Limits Results Terminology", "type": "Code List"}, "rootItem": {"href": "/mdr/root/ct/sendct/codelists/C132321", "title": "Version-agnostic anchor resource for codelist C132321", "type": "Root Value Domain"}, "self": {"href": "/mdr/ct/packages/sendct-2017-09-29/codelists/C132321", "title": "CDISC SEND Within Normal Limits Results Terminology", "type": "Code List"}}, "conceptId": "C132321", "definition": "Terminology related to result values that are considered normal or within normal limits.", "extensible": "true", "name": "Within Normal Limits Results", "preferredTerm": "CDISC SEND Within Normal Limits Results Terminology", "submissionValue": "NORMRS", "synonyms": ["Within Normal Limits Results"], "terms": [{"conceptId": "C14165", "definition": "Being approximately average or within certain limits; conforming with or constituting a norm or standard or level or type or social norm. (NCI)", "preferredTerm": "Normal", "submissionValue": "NORMAL"}, {"conceptId": "C96301", "definition": "No noteworthy findings.", "preferredTerm": "Unremarkable", "submissionValue": "UNREMARKABLE"}]}