{"_links": {"parentPackage": {"href": "/mdr/ct/packages/cdashct-2015-03-27", "title": "CDASH Controlled Terminology Package 21 Effective 2015-03-27", "type": "Terminology"}, "priorVersion": {"href": "/mdr/ct/packages/cdashct-2014-09-26/codelists/C78428", "title": "CDISC CDASH Total Volume Administration Unit Terminology", "type": "Code List"}, "rootItem": {"href": "/mdr/root/ct/cdashct/codelists/C78428", "title": "Version-agnostic anchor resource for codelist C78428", "type": "Root Value Domain"}, "self": {"href": "/mdr/ct/packages/cdashct-2015-03-27/codelists/C78428", "title": "CDISC CDASH Total Volume Administration Unit Terminology", "type": "Code List"}}, "conceptId": "C78428", "definition": "A terminology subset of the CDISC SDTM Unit codelist created for CDASH Total Volume Administration Unit codelist. (NCI)", "extensible": "true", "name": "Total Volume Administration Unit", "preferredTerm": "CDISC CDASH Total Volume Administration Unit Terminology", "submissionValue": "EXVOLTU", "synonyms": ["Total Volume Administration Unit"], "terms": [{"conceptId": "C28254", "definition": "The unit of volume equal to one thousandth of a liter, one cubic centimeter, 10E-6 cubic meter, or approximately to 0.061 023 7 cubic inch.(NCI)", "preferredTerm": "Milliliter", "submissionValue": "mL", "synonyms": ["Milliliter", "cm3"]}, {"conceptId": "C28253", "definition": "The unit of mass equal to one thousandth of a gram or 1000 micrograms. One milligram equals approximately 0.015432 grain or 35.274 x 10E-6 ounce.(NCI)", "preferredTerm": "Milligram", "submissionValue": "mg", "synonyms": ["Milligram"]}, {"conceptId": "C48152", "definition": "The unit of mass equal to one millionth of a gram or one thousandth of a milligram.(NCI)", "preferredTerm": "Microgram", "submissionValue": "ug", "synonyms": ["Microgram", "mcg"]}]}