{"_links": {"parentPackage": {"href": "/mdr/ct/packages/cdashct-2015-03-27", "title": "CDASH Controlled Terminology Package 21 Effective 2015-03-27", "type": "Terminology"}, "priorVersion": {"href": "/mdr/ct/packages/cdashct-2014-09-26/codelists/C78427", "title": "CDISC CDASH Unit for Duration of Treatment Interruption Terminology", "type": "Code List"}, "rootItem": {"href": "/mdr/root/ct/cdashct/codelists/C78427", "title": "Version-agnostic anchor resource for codelist C78427", "type": "Root Value Domain"}, "self": {"href": "/mdr/ct/packages/cdashct-2015-03-27/codelists/C78427", "title": "CDISC CDASH Unit for Duration of Treatment Interruption Terminology", "type": "Code List"}}, "conceptId": "C78427", "definition": "A terminology subset of the CDISC SDTM Unit codelist created for CDASH Unit for Duration of Treatment Interruption codelist. (NCI)", "extensible": "true", "name": "Unit for the Duration of Treatment Interruption", "preferredTerm": "CDISC CDASH Unit for Duration of Treatment Interruption Terminology", "submissionValue": "EXINTPU", "synonyms": ["Unit for the Duration of Treatment Interruption"], "terms": [{"conceptId": "C25529", "definition": "A unit measure of time equal to 3,600 seconds or 60 minutes. It is approximately 1/24 of a median day. (NCI)", "preferredTerm": "Hour", "submissionValue": "HOURS", "synonyms": ["Hour", "hr"]}, {"conceptId": "C48154", "definition": "A unit measure of time equal to 60 seconds.(NCI)", "preferredTerm": "Minute", "submissionValue": "min", "synonyms": ["Minute Unit of Time"]}, {"conceptId": "C42535", "definition": "The second is a unit of time with a duration of 919 263 177 0 periods of the specified light radiation corresponding to the transition between the two hyperfine levels of the cesium 133 atom in its ground state at 0 K. According to the convention, 60 seconds constitute one minute; 3,600 seconds constitute one hour. Abbreviation Sec. is acceptable in non-scientific usage only.(NCI)", "preferredTerm": "Second", "submissionValue": "sec", "synonyms": ["Second"]}]}