{"_links": {"parentPackage": {"href": "/mdr/ct/packages/cdashct-2015-03-27", "title": "CDASH Controlled Terminology Package 21 Effective 2015-03-27", "type": "Terminology"}, "priorVersion": {"href": "/mdr/ct/packages/cdashct-2014-09-26/codelists/C78429", "title": "CDISC CDASH Unit of Measure for Flow Rate Terminology", "type": "Code List"}, "rootItem": {"href": "/mdr/root/ct/cdashct/codelists/C78429", "title": "Version-agnostic anchor resource for codelist C78429", "type": "Root Value Domain"}, "self": {"href": "/mdr/ct/packages/cdashct-2015-03-27/codelists/C78429", "title": "CDISC CDASH Unit of Measure for Flow Rate Terminology", "type": "Code List"}}, "conceptId": "C78429", "definition": "A terminology subset of the CDISC SDTM Unit codelist created for CDASH Unit of Measure for Flow Rate codelist. (NCI)", "extensible": "true", "name": "Unit of Measure for Flow Rate", "preferredTerm": "CDISC CDASH Unit of Measure for Flow Rate Terminology", "submissionValue": "EXFLRTU", "synonyms": ["Unit of Measure for Flow Rate"], "terms": [{"conceptId": "C64777", "definition": "A metric unit of volumetric flow rate defined as the rate at which one milliliter of matter travels during the period of time equal to one minute.(NCI)", "preferredTerm": "Milliliter per Minute", "submissionValue": "mL/min", "synonyms": ["Milliliters per Minute"]}, {"conceptId": "C67420", "definition": "A unit of amount of substance flow rate equivalent to the rate at which one thousandth of a mole of substance travels or is delivered to a given object or space over a period of time equal to 24 hours.(NCI)", "preferredTerm": "Millimole per 24 Hours", "submissionValue": "mmol/day", "synonyms": ["Millimole per 24 Hours"]}, {"conceptId": "C71205", "definition": "A unit of mass flow rate equivalent to the rate at which one millionth of a gram of matter travels to a given object or space over a period of time equal to twenty four hours. Microgram per day is also a dose administration rate unit equal to the rate at which one millionth of a gram of a product is administered per unit of time equal to twenty four hours.(NCI)", "preferredTerm": "Microgram per Day", "submissionValue": "ug/day", "synonyms": ["Microgram per Day", "mcg/day"]}, {"conceptId": "C71211", "definition": "A unit of mass flow rate equivalent to the rate at which one millionth of a gram of matter travels to a given object or space over a period of time equal to one minute. Microgram per minute is also a dose administration rate unit equal to the rate at which one millionth of a gram of a product is administered per unit of time equal to one minute.(NCI)", "preferredTerm": "Microgram per Minute", "submissionValue": "ug/min", "synonyms": ["Micrograms per Minute", "mcg/min"]}, {"conceptId": "C67406", "definition": "A unit of amount of substance flow rate equivalent to the rate at which one millionth of a mole of substance travels to a given object or space over a period of time equal to 24 hours.(NCI)", "preferredTerm": "Micromole per 24 Hours", "submissionValue": "umol/day", "synonyms": ["Micromoles per Day", "mcmol/day"]}]}