{"_links": {"parentPackage": {"href": "/mdr/ct/packages/protocolct-2021-03-26", "title": "Protocol Controlled Terminology Package 45 Effective 2021-03-26", "type": "Terminology"}, "priorVersion": {"href": "/mdr/ct/packages/protocolct-2020-12-18/codelists/C132310", "title": "CDISC Protocol Entities Terminology", "type": "Code List"}, "rootItem": {"href": "/mdr/root/ct/protocolct/codelists/C132310", "title": "Version-agnostic anchor resource for codelist C132310", "type": "Root Value Domain"}, "self": {"href": "/mdr/ct/packages/protocolct-2021-03-26/codelists/C132310", "title": "CDISC Protocol Entities Terminology", "type": "Code List"}}, "conceptId": "C132310", "definition": "A terminology value set relevant to the entities within a protocol.", "name": "Protocol Entity Terminology", "preferredTerm": "CDISC Protocol Entities Terminology", "submissionValue": "Protocol Entity Terminology", "synonyms": ["Protocol Entity Terminology"], "terms": [{"conceptId": "C15206", "definition": "A clinical study involves research using human volunteers (also called participants) that is intended to add to medical knowledge. There are two main types of clinical studies: clinical trials (also called interventional studies) and observational studies. [ClinicalTrials.gov] See also clinical trial. (CDISC Glossary)", "preferredTerm": "Clinical Study", "submissionValue": "Clinical Study"}, {"conceptId": "C71104", "definition": "1) A research investigation involving human subjects that is designed to answer specific questions about the safety and efficacy of a biomedical intervention (drug, treatment, device) or new ways of using a known drug, treatment, or device). 2) A research study in which one or more human subjects are prospectively assigned to one or more interventions (which may include placebo or other control) to evaluate the effects of those interventions on health-related biomedical or behavioral outcomes.(1. modified from ICH E6 Glossary, Directive 2001/20/EC. 2. NIH revised definition 2015) (CDISC Glossary)", "preferredTerm": "Clinical Trial", "submissionValue": "Clinical Trial"}, {"conceptId": "C25212", "definition": "A defined variable intended to reflect an outcome measure of interest that is statistically analyzed to address a particular research question. NOTE: A precise definition of an endpoint typically specifies the type of assessments made, the timing of those assessments, the assessment tools used, and possibly other details, as applicable, such as how multiple assessments within an individual are to be combined. [After BEST Resource] (CDISC Glossary)", "preferredTerm": "End Point", "submissionValue": "Endpoint"}, {"conceptId": "C51981", "definition": "Any component that constitutes a part of a compound or mixture.", "preferredTerm": "Ingredient", "submissionValue": "Ingredient"}, {"conceptId": "C25218", "definition": "The drug, device, therapy, or process under investigation in a clinical study that is believed to have an effect on outcomes of interest in a study. [After https://grants.nih.gov/grants/policy/faq_clinical_trial_definition.htm#5224] (CDISC-Glossary)", "preferredTerm": "Intervention or Procedure", "submissionValue": "Intervention"}, {"conceptId": "C20200", "definition": "Events or experiences that clinicians or investigators examining the impact of an intervention or exposure measure because they believe such events or experiences may be influenced by the research intervention or exposure. Outcome is a general term in that it does not necessarily relate to a planned objective of the study. (FDA)", "preferredTerm": "Outcome", "submissionValue": "Outcome"}, {"conceptId": "C93407", "definition": "Specific key measurement(s) or observation(s) used to measure the effect of experimental variables on the participants in a study, or for observational studies, to describe patterns of diseases or traits or associations with exposures, risk factors or treatment. (BRIDG)", "preferredTerm": "Study Outcome Measurement", "submissionValue": "Outcome Measure"}, {"conceptId": "C25407", "definition": "A standardized representation of the location of a person, business, building, or organization. (NCI)", "preferredTerm": "Address", "submissionValue": "Physical Address"}, {"conceptId": "C174447", "definition": "A planned pathway assigned to the subject as they progress through the study, usually referred to by a name that reflects one or more treatments, exposures, and/or controls included in the path.", "preferredTerm": "Study Arm", "submissionValue": "Study Arm", "synonyms": ["Arm"]}, {"conceptId": "C154705", "definition": "Information regarding the means of contacting a person or group that performs a function within a clinical study.", "preferredTerm": "Study Contact Information", "submissionValue": "Study Contact Information"}, {"conceptId": "C15320", "definition": "A plan detailing how a study will be performed in order to represent the phenomenon under examination, to answer the research questions that have been asked, and informing the statistical approach.", "preferredTerm": "Study Design", "submissionValue": "Study Design"}, {"conceptId": "C142707", "definition": "The act of overseeing the progress of a clinical study and of ensuring that it is conducted, recorded, and reported in accordance with the protocol, standard operating procedures (SOPs), good clinical practice (GCP), and regulatory requirement(s) where applicable. [after ICH E6 Glossary]", "preferredTerm": "Study Monitoring", "submissionValue": "Study Monitoring"}, {"conceptId": "C93450", "definition": "A group of individuals that approves, monitors and reviews biomedical research to protect the rights, safety and welfare of the study participants, by providing critical scientific, ethical, and/or regulatory oversight functions.", "preferredTerm": "Study Oversight Authority", "submissionValue": "Study Oversight Entity"}, {"conceptId": "C70833", "definition": "A group of individuals taken from the general population who share a set of common characteristics, such as age, sex, or health condition, precisely defined in the study protocol. This is a population to which the study results could be reasonably generalized.", "preferredTerm": "Study Population", "submissionValue": "Study Population"}, {"conceptId": "C174271", "definition": "The material artifact(s), such as the trial product, interventional product, study drug, device, or procedure and their comparator(s), that is the focus of the study.", "preferredTerm": "Study Product", "submissionValue": "Study Product"}, {"conceptId": "C177924", "definition": "The act of the dispensing, applying, or tendering a study product to the participant. (NCI)", "preferredTerm": "Study Product Administration", "submissionValue": "Study Product Administration"}, {"conceptId": "C70817", "definition": "The formal plan of an experiment or research activity, including the objective, rationale, design, materials and methods for the conduct of the study, intervention description, and method of data analysis.", "preferredTerm": "Study Protocol", "submissionValue": "Study Protocol"}]}