{"_links": {"parentPackage": {"href": "/mdr/ct/packages/sdtmct-2022-12-16", "title": "SDTM Controlled Terminology Package 52 Effective 2022-12-16", "type": "Terminology"}, "priorVersion": {"href": "/mdr/ct/packages/sdtmct-2022-09-30/codelists/C100134", "title": "CDISC Clinical Classification BPRS-Anchored Test Code Terminology", "type": "Code List"}, "rootItem": {"href": "/mdr/root/ct/sdtmct/codelists/C100134", "title": "Version-agnostic anchor resource for codelist C100134", "type": "Root Value Domain"}, "self": {"href": "/mdr/ct/packages/sdtmct-2022-12-16/codelists/C100134", "title": "CDISC Clinical Classification BPRS-Anchored Test Code Terminology", "type": "Code List"}}, "conceptId": "C100134", "definition": "The Brief Psychiatric Rating Scale-Anchored test code.", "extensible": "false", "name": "Brief Psychiatric Rating Scale-Anchored Clinical Classification Test Code", "preferredTerm": "CDISC Clinical Classification BPRS-Anchored Test Code Terminology", "submissionValue": "BPRSA1TC", "synonyms": ["Brief Psychiatric Rating Scale-Anchored Clinical Classification Test Code"], "terms": [{"conceptId": "C100372", "definition": "Brief Psychiatric Rating Scale-Anchored - Somatic Concern.", "preferredTerm": "BPRS-Anchored - Somatic Concern", "submissionValue": "BPRSA101", "synonyms": ["BPRSA1-Somatic Concern"]}, {"conceptId": "C100373", "definition": "Brief Psychiatric Rating Scale-Anchored - Anxiety.", "preferredTerm": "BPRS-Anchored - Anxiety", "submissionValue": "BPRSA102", "synonyms": ["BPRSA1-Anxiety"]}, {"conceptId": "C100374", "definition": "Brief Psychiatric Rating Scale-Anchored - Emotional Withdrawal.", "preferredTerm": "BPRS-Anchored - Emotional Withdrawal", "submissionValue": "BPRSA103", "synonyms": ["BPRSA1-Emotional Withdrawal"]}, {"conceptId": "C100375", "definition": "Brief Psychiatric Rating Scale-Anchored - Conceptual Disorganization.", "preferredTerm": "BPRS-Anchored - Conceptual Disorganization", "submissionValue": "BPRSA104", "synonyms": ["BPRSA1-Conceptual Disorganization"]}, {"conceptId": "C100376", "definition": "Brief Psychiatric Rating Scale-Anchored - Guilt Feelings.", "preferredTerm": "BPRS-Anchored - Guilt Feelings", "submissionValue": "BPRSA105", "synonyms": ["BPRSA1-Guilt Feelings"]}, {"conceptId": "C100377", "definition": "Brief Psychiatric Rating Scale-Anchored - Tension.", "preferredTerm": "BPRS-Anchored - Tension", "submissionValue": "BPRSA106", "synonyms": ["BPRSA1-Tension"]}, {"conceptId": "C100378", "definition": "Brief Psychiatric Rating Scale-Anchored - Mannerisms and Posturing.", "preferredTerm": "BPRS-Anchored - Mannerisms and Posturing", "submissionValue": "BPRSA107", "synonyms": ["BPRSA1-Mannerisms and Posturing"]}, {"conceptId": "C100379", "definition": "Brief Psychiatric Rating Scale-Anchored - Grandiosity.", "preferredTerm": "BPRS-Anchored - Grandiosity", "submissionValue": "BPRSA108", "synonyms": ["BPRSA1-Grandiosity"]}, {"conceptId": "C100380", "definition": "Brief Psychiatric Rating Scale-Anchored - Depressive Mood.", "preferredTerm": "BPRS-Anchored - Depressive Mood", "submissionValue": "BPRSA109", "synonyms": ["BPRSA1-Depressive Mood"]}, {"conceptId": "C100381", "definition": "Brief Psychiatric Rating Scale-Anchored - Hostility.", "preferredTerm": "BPRS-Anchored - Hostility", "submissionValue": "BPRSA110", "synonyms": ["BPRSA1-Hostility"]}, {"conceptId": "C100382", "definition": "Brief Psychiatric Rating Scale-Anchored - Suspiciousness.", "preferredTerm": "BPRS-Anchored - Suspiciousness", "submissionValue": "BPRSA111", "synonyms": ["BPRSA1-Suspiciousness"]}, {"conceptId": "C100383", "definition": "Brief Psychiatric Rating Scale-Anchored - Hallucinatory Behavior.", "preferredTerm": "BPRS-Anchored - Hallucinatory Behavior", "submissionValue": "BPRSA112", "synonyms": ["BPRSA1-Hallucinatory Behavior"]}, {"conceptId": "C100384", "definition": "Brief Psychiatric Rating Scale-Anchored - Motor Retardation.", "preferredTerm": "BPRS-Anchored - Motor Retardation", "submissionValue": "BPRSA113", "synonyms": ["BPRSA1-Motor Retardation"]}, {"conceptId": "C100385", "definition": "Brief Psychiatric Rating Scale-Anchored - Uncooperativeness.", "preferredTerm": "BPRS-Anchored - Uncooperativeness", "submissionValue": "BPRSA114", "synonyms": ["BPRSA1-Uncooperativeness"]}, {"conceptId": "C100386", "definition": "Brief Psychiatric Rating Scale-Anchored - Unusual Thought Content.", "preferredTerm": "BPRS-Anchored - Unusual Thought Content", "submissionValue": "BPRSA115", "synonyms": ["BPRSA1-Unusual Thought Content"]}, {"conceptId": "C100387", "definition": "Brief Psychiatric Rating Scale-Anchored - Blunted Affect.", "preferredTerm": "BPRS-Anchored - Blunted Affect", "submissionValue": "BPRSA116", "synonyms": ["BPRSA1-Blunted Affect"]}, {"conceptId": "C100388", "definition": "Brief Psychiatric Rating Scale-Anchored - Excitement.", "preferredTerm": "BPRS-Anchored - Excitement", "submissionValue": "BPRSA117", "synonyms": ["BPRSA1-Excitement"]}, {"conceptId": "C100389", "definition": "Brief Psychiatric Rating Scale-Anchored - Disorientation.", "preferredTerm": "BPRS-Anchored - Disorientation", "submissionValue": "BPRSA118", "synonyms": ["BPRSA1-Disorientation"]}]}