{"_links": {"parentPackage": {"href": "/mdr/ct/packages/sdtmct-2022-12-16", "title": "SDTM Controlled Terminology Package 52 Effective 2022-12-16", "type": "Terminology"}, "priorVersion": {"href": "/mdr/ct/packages/sdtmct-2022-09-30/codelists/C100129", "title": "CDISC Questionnaire Category Terminology", "type": "Code List"}, "rootItem": {"href": "/mdr/root/ct/sdtmct/codelists/C100129", "title": "Version-agnostic anchor resource for codelist C100129", "type": "Root Value Domain"}, "self": {"href": "/mdr/ct/packages/sdtmct-2022-12-16/codelists/C100129", "title": "CDISC Questionnaire Category Terminology", "type": "Code List"}}, "conceptId": "C100129", "definition": "A grouping of observations within the Questionnaires domain.", "extensible": "true", "name": "Category of Questionnaire", "preferredTerm": "CDISC Questionnaire Category Terminology", "submissionValue": "QSCAT", "synonyms": ["Category of Questionnaire"], "terms": [{"conceptId": "C187516", "definition": "Activities-Specific Balance Confidence Scale (ABC) (Powell LE, Myers AM. The Activities-specific Balance Confidence (ABC) Scale. J Gerontol A Biol Sci Med Sci. 1995 Jan;50A(1):M28-34. ABC scale Anita M. Myers, 1995. All rights reserved.). No part of the Activities-Specific Balance Confidence Scale may be reproduced, distributed, or transmitted in any form or by any means, including photocopying, recording, or other electronic or mechanical methods, without the prior written permission of Anita M. Myers and payment of any applicable fees. Copyright Anita M. Myers, 1995. All rights reserved.", "preferredTerm": "Activities-Specific Balance Confidence Scale Questionnaire", "submissionValue": "ABC", "synonyms": ["ABC01"]}, {"conceptId": "C122370", "definition": "Asthma Control Questionnaire (ACQ) (The Asthma Control Questionnaire is copyrighted. It may not be changed, translated or sold [paper or software] without the permission of Elizabeth Juniper. Juniper EF, O'Byrne PM, Guyatt GH, Ferrie PJ, King DR. Development and validation of a questionnaire to measure asthma control. Eur Respir J 1999;14:902-907).", "preferredTerm": "Asthma Control Questionnaire", "submissionValue": "ACQ", "synonyms": ["ACQ01"]}, {"conceptId": "C123658", "definition": "Asthma Control Test (ACT) (Asthma Control Test copyright, QualityMetric Incorporated 2002, 2004. All Rights Reserved. Asthma Control Test is a trademark of QualityMetric Incorporated. Nathan RA, Sorkness CA, Kosinski M, Schatz M, Li JT, Marcus P, Murray JJ, Pendergraft TB. Development of the asthma control test: a survey for assessing asthma control. J Allergy Clin Immunol. 2004 Jan;113(1):59-65).", "preferredTerm": "Asthma Control Test Questionnaire", "submissionValue": "ACT", "synonyms": ["ACT01"]}, {"conceptId": "C100762", "definition": "The CDISC version of the Alzheimer's Disease Assessment Scale-Cognitive (ADAS-Cog CDISC Version) containing 15 summary-level tests. This version is based on combining the total pool of ADAS-Cog tests that were observed during a review of multiple case report forms administered in clinical trials of Alzheimer's disease, as well as the CRF administered in the Alzheimer's Disease Neuroimaging Initiative (ADNI) observational study. (Modified from Mohs RC, Rosen WG, Davis KL. The Alzheimer's disease assessment scale: an instrument for assessing treatment efficacy. Psychopharmacol Bull 1983;19(3):448-450. Rosen WG, Mohs RC, Davis KL. A new rating scale for Alzheimer's disease. Am J Psychiatry 1984;141(11):1356-1364. Mohs RC, Knopman D, Petersen RC et al. Development of cognitive instruments for use in clinical trials of antidementia drugs: additions to the Alzheimer's Disease Assessment Scale that broaden its scope. The Alzheimer's Disease Cooperative Study. Alzheimer Dis Assoc Disord 1997;11 Suppl 2:S13-S21. Wouters H, van Gool WA, Schmand B, Lindeboom R. Revising the ADAS-cog for a more accurate assessment of cognitive impairment. Alzheimer Dis Assoc Disord 2008;22(3):236-244.).", "preferredTerm": "Alzheimer's Disease Assessment Scale-Cognitive CDISC Version Questionnaire", "submissionValue": "ADAS-COG", "synonyms": ["ADC"]}, {"conceptId": "C106888", "definition": "Alzheimer's Disease Cooperative Study-Activities of Daily Living Inventory (ADCS-ADL), MCI Version (Galasko, D., Bennett, D., Sano, M., Ernesto, C., Thomas, R., Grundman, M., Ferris, S., and the ADCS. An Inventory to Assess Activities of Daily Living for Clinical Trials in Alzheimer's Disease. Alzheimer's Disease and Associated Disorders, 1997. Volume 11(2): S33-S39).", "preferredTerm": "Alzheimer's Disease Cooperative Study-Activities of Daily Living Inventory Mild Cognitive Impairment Questionnaire", "submissionValue": "ADCS-ADL MCI", "synonyms": ["ADL03"]}, {"conceptId": "C106889", "definition": "Alzheimer's Disease Cooperative Study-Activities of Daily Living Inventory (ADCS-ADL), Severe Dementia Version (Galasko, D., Bennett, D., Sano, M., Ernesto, C., Thomas, R., Grundman, M., Ferris, S., and the ADCS. An Inventory to Assess Activities of Daily Living for Clinical Trials in Alzheimer's Disease. Alzheimer's Disease and Associated Disorders, 1997. Volume 11(2): S33-S39).", "preferredTerm": "Alzheimer's Disease Cooperative Study-Activities of Daily Living Inventory Severe Dementia Questionnaire", "submissionValue": "ADCS-ADL SEVERE DEMENTIA", "synonyms": ["ADL02"]}, {"conceptId": "C105166", "definition": "Alzheimer's Disease Cooperative Study-Activities of Daily Living Inventory (ADCS-ADL) (Galasko, D., Bennett, D., Sano, M., Ernesto, C., Thomas, R., Grundman, M., Ferris, S., and the ADCS. \"An Inventory to Assess Activities of Daily Living for Clinical Trials in Alzheimer's Disease.\" Alzheimer's Disease and Associated Disorders, 1997. Volume 11(2): S33-S39).", "preferredTerm": "Alzheimer's Disease Cooperative Study Activities of Daily Living Inventory Questionnaire", "submissionValue": "ADCS-ADL", "synonyms": ["ADL01"]}, {"conceptId": "C103515", "definition": "Alzheimer's Disease Cooperative Study-Clinical Global Impression of Change (ADCS-CGIC) (Schneider LS, Olin JT, Doody RS, Clark CM, Morris JC, Reisberg B, Schmitt FA, Grundman M, Thomas RG, Ferris SH, and the Alzheimer's Disease Cooperative Study. Validity and Reliability of the Alzheimer's Disease Cooperative Study-Clinical Global Impression of Change. Alzheimer Disease and Associated Disorders. 1997; 11(2):S22-S32).", "preferredTerm": "Alzheimer's Disease Cooperative Study-Clinical Global Impression of Change Questionnaire", "submissionValue": "ADCS-CGIC", "synonyms": ["ACGC01"]}, {"conceptId": "C122371", "definition": "ADHD Rating Scale-IV (ADHD-RS-IV) Home Version (Copyright 1998. DuPaul GJ, Power TJ, Anastopoulos AD, Reid R. ADHD Rating Scale-IV: Checklists, Norms, and Clinical Interpretation. New York: The Guilford Press; 1998).", "preferredTerm": "ADHD Rating Scale-IV Home Version Questionnaire", "submissionValue": "ADHD-RS-IV HOME VERSION", "synonyms": ["ADHD01"]}, {"conceptId": "C163811", "definition": "Asthma Daytime Symptom Diary v1.0 (ADSD V1.0) (Version 1.0 Copyright 2018 Critical Path Institute. All Rights Reserved. Gater A, Nelsen L, Fleming S, Lundy J.J, Bonner N, Hall R, Marshall C, Staunton H, Krishnan JA, Stoloff S, Schatz M, Haughney J on behalf of the Patient-Reported Outcome Consortium's Asthma Working Group. Assessing asthma symptoms in adolescents and adults: qualitative research supporting development of the Asthma Daily Symptom Diary. Value in Health 2016; 19:440-450. Patient-Reported Outcome (PRO) Consortium - Asthma Daytime Symptom Diary (ADSD) and Asthma Nighttime Symptom Diary (ANSD) User Manual, Version 1: March 30, 2019). No part of the ADSD V1.0 may be reproduced, distributed, or transmitted in any form or by any means, including photocopying, recording, or other electronic or mechanical methods, without the prior written permission of the Critical Path Institute and payment of any applicable fees. Copyright Critical Path Institute, 2018. All rights reserved.", "preferredTerm": "Asthma Daytime Symptom Diary V1.0 Questionnaire", "submissionValue": "ADSD V1.0", "synonyms": ["ADSD01"]}, {"conceptId": "C163812", "definition": "Asthma Nighttime Symptom Diary v1.0 (ANSD V1.0) (Version 1.0 Copyright 2018 Critical Path Institute. All Rights Reserved. Gater A, Nelsen L, Fleming S, Lundy J.J, Bonner N, Hall R, Marshall C, Staunton H, Krishnan JA, Stoloff S, Schatz M, Haughney J on behalf of the Patient-Reported Outcome Consortium's Asthma Working Group. Assessing asthma symptoms in adolescents and adults: qualitative research supporting development of the Asthma Daily Symptom Diary. Value in Health 2016; 19:440-450. Patient-Reported Outcome (PRO) Consortium - Asthma Daytime Symptom Diary (ADSD) and Asthma Nighttime Symptom Diary (ANSD) User Manual, Version 1: March 30, 2019). No part of the ANSD V1.0 may be reproduced, distributed, or transmitted in any form or by any means, including photocopying, recording, or other electronic or mechanical methods, without the prior written permission of the Critical Path Institute and payment of any applicable fees. Copyright Critical Path Institute, 2018. All rights reserved.", "preferredTerm": "Asthma Nighttime Symptom Diary V1.0 Questionnaire", "submissionValue": "ANSD V1.0", "synonyms": ["ANSD01"]}, {"conceptId": "C112518", "definition": "Airway Questionnaire 20 (AQ20) (Barley EA, Quirk FH, Jones PW. Asthma health status in clinical practice: validity of a new short and simple instrument. Respir Med 1998; 92:1207-14. Copyright Reserved P.W. Jones, PhD FRCP).", "preferredTerm": "Airway Questionnaire 20", "submissionValue": "AQ20", "synonyms": ["AQ01"]}, {"conceptId": "C122372", "definition": "Asthma Quality of Life Questionnaire (AQLQ) (The AQLQ is copyrighted. It may not be altered, sold [paper or electronic], translated or adapted for another medium without the permission of Elizabeth Juniper. Juniper EF, Guyatt GH, Epstein RS, Ferrie PJ, Jaeschke R, Hiller TK. Evaluation of impairment of health-related quality of life in asthma: development of a questionnaire for use in clinical trials. Thorax 1992; 47:76-83).", "preferredTerm": "Asthma Quality of Life Questionnaire", "submissionValue": "AQLQ", "synonyms": ["AQLQ01"]}, {"conceptId": "C125757", "definition": "Arizona Sexual Experiences Scale (ASEX)-Female (Copyright 1997 by Arizona Board of Regents, University of Arizona. All rights reserved).", "preferredTerm": "Arizona Sexual Experiences Scale-Female Version Questionnaire", "submissionValue": "ASEX-FEMALE", "synonyms": ["ASEX01"]}, {"conceptId": "C125758", "definition": "Arizona Sexual Experiences Scale (ASEX)-Male (Copyright 1997 by Arizona Board of Regents, University of Arizona. All rights reserved).", "preferredTerm": "Arizona Sexual Experiences Scale-Male Version Questionnaire", "submissionValue": "ASEX-MALE", "synonyms": ["ASEX02"]}, {"conceptId": "C119098", "definition": "Alcohol Use Disorder Identification Test-Consumption Questions (AUDIT-C) (Bush K, Kivlahan DR, McDonell MB, Fihn SD, Bradley KA; for the Ambulatory Care Quality Improvement Project (ACQUIP). The AUDIT Alcohol Consumption Questions (AUDIT-C) An Effective Brief Screening Test for Problem Drinking. Arch Intern Med. Sep 14 1998;158:1789-1795).", "preferredTerm": "Alcohol Use Disorder Identification Test Alcohol Consumption Questions Questionnaire", "submissionValue": "AUDIT-C", "synonyms": ["ADTC01"]}, {"conceptId": "C119097", "definition": "Alcohol Use Disorder Identification Test: Self-Report Version (AUDIT) (Saunders JB, Aasland, OG, Babor, TF, De La Fuente JR, Grant M. Development of the Alcohol Use Disorders Identification Test (AUDIT): WHO Collaborative Project on Early Detection of Persons with harmful Alcohol Consumption-II. Addiction (1993) 88:791-804).", "preferredTerm": "Alcohol Use Disorder Identification Test Self-Report Version Questionnaire", "submissionValue": "AUDIT-SR", "synonyms": ["ADT01"]}, {"conceptId": "C135735", "definition": "Baby Eating Behaviour Questionnaire - Concurrent (BEBQ CONCURRENT) (Llewellyn, C. H., van Jaarsveld, C. H., Johnson, L., Carnell, S., & Wardle, J. Development and factor structure of the Baby Eating Behaviour Questionnaire in the Gemini birth cohort. Appetite 57.2, 2011, 388-396).", "preferredTerm": "Baby Eating Behaviour Questionnaire Concurrent Version", "submissionValue": "BEBQ CONCURRENT", "synonyms": ["BEBQ01"]}, {"conceptId": "C135736", "definition": "Baby Eating Behaviour Questionnaire - Retrospective (BEBQ RETROSPECTIVE) (Llewellyn, C. H., van Jaarsveld, C. H., Johnson, L., Carnell, S., & Wardle, J. Development and factor structure of the Baby Eating Behaviour Questionnaire in the Gemini birth cohort. Appetite 57.2, 2011, 388-396).", "preferredTerm": "Baby Eating Behaviour Questionnaire Retrospective Version", "submissionValue": "BEBQ RETROSPECTIVE", "synonyms": ["BEBQ02"]}, {"conceptId": "C187512", "definition": "Beck Depression Inventory-Second Edition (BECK DEPRESSION INVENTORY-II) (The Psychological Corporation Harcourt Brace & Company Copyright 1996, by Aaron T. Beck. All rights reserved. Beck AT, Steer RA, Brown GK. BDI-II Manual. The Psychological Corporation, San Antonio, TX, USA. 1996; 38p. Copyright 1996, 1987 Aaron T Beck). No part of the Beck Depression Inventory-Second Edition may be reproduced, distributed, or transmitted in any form or by any means, including photocopying, recording, or other electronic or mechanical methods, without the prior written permission of the Psychological Corporation Harcourt Brace & Company and payment of any applicable fees. Copyright Psychological Corporation Harcourt Brace & Company 1996 and Aaron T. Beck. All rights reserved.", "preferredTerm": "Beck Depression Inventory-Second Edition Questionnaire", "submissionValue": "BECK DEPRESSION INVENTORY-II", "synonyms": ["BD01", "BDI-II"]}, {"conceptId": "C74297", "definition": "Brief Fatigue Inventory (BFI) (Mendoza TR, Wang XS, Cleeland CS, Morrissey M, Johnson BA, Wendt JK, Huber SL. The rapid assessment of fatigue severity in cancer patients: use of the Brief Fatigue Inventory. Cancer. 1999 Mar 1;85(5):1186-96. Copyright 1999. The University of Texas M. D. Anderson Cancer Center. All rights reserved). No part of the Brief Fatigue Inventory may be reproduced, distributed, or transmitted in any form or by any means, including photocopying, recording, or other electronic or mechanical methods, without the prior written permission of the University of Texas M. D. Anderson Cancer Center and payment of any applicable fees. Copyright the University of Texas M. D. Anderson Cancer Center 1999. All rights reserved.", "preferredTerm": "Brief Fatigue Inventory", "submissionValue": "BFI", "synonyms": ["BFI01"]}, {"conceptId": "C172402", "definition": "Barratt Impulsiveness Scale 1995 Version (BIS-11) (Patton JH, Stanford MS, and Barratt ES (1995). Factor structure of the Barratt impulsiveness scale. Journal of Clinical Psychology, 51, 768-774. Copyright International Society for Research on Impulsivity and it's licensor's. All Rights Reserved).", "preferredTerm": "Barratt Impulsiveness Scale 1995 Version Questionnaire", "submissionValue": "BIS-11", "synonyms": ["BIS01"]}, {"conceptId": "C113874", "definition": "Bladder Control Scale (BLCS) (1997 by the National Multiple Sclerosis Society. All rights reserved).", "preferredTerm": "Bladder Control Scale Questionnaire", "submissionValue": "BLCS", "synonyms": ["BLCS01"]}, {"conceptId": "C113872", "definition": "Borg CR10 Scale (BORG CR10) (Borg CR10 Scale. Copyright Gunnar Borg, 1981, 1982, 1998).", "preferredTerm": "Borg Category-Ratio 10 Scale Questionnaire", "submissionValue": "BORG CR10", "synonyms": ["BCR101"]}, {"conceptId": "C100760", "definition": "Brief Pain Inventory Short Form (BPI2) (copyright 1991 Charles S. Cleeland, PhD, Pain Research Group, All Right Reserved).", "preferredTerm": "Brief Pain Inventory Short Form Questionnaire", "submissionValue": "BPI SHORT FORM", "synonyms": ["BPI2"]}, {"conceptId": "C100759", "definition": "Brief Pain Inventory (BPI) (copyright 1991 Charles S. Cleeland, PhD, Pain Research Group, All Right Reserved).", "preferredTerm": "Brief Pain Inventory Questionnaire", "submissionValue": "BPI", "synonyms": ["BPI1"]}, {"conceptId": "C125393", "definition": "Bristol Stool Form Scale (BSFS) (Lewis SJ, Heaton KW. Stool form scale as a useful guide to intestinal transit time. Scand J Gastroenterol. 1997 Sep;32(9):920-4. Copyright by ROME Foundation. All rights reserved).", "preferredTerm": "Bristol Stool Scale", "submissionValue": "BSFS", "synonyms": ["BSFS01"]}, {"conceptId": "C43524", "definition": "Brief Symptom Inventory-18 (BSI-18) (Leonard R. Derogatis. Brief Symptom Inventory (BSI)-18: Administration, scoring and procedures manual. Minneapolis 2001: NCS Pearson, Inc).", "preferredTerm": "Brief Symptom Inventory 18", "submissionValue": "BSI-18", "synonyms": ["BSI181"]}, {"conceptId": "C113875", "definition": "Bowel Control Scale (BWCS) (1997 by the National Multiple Sclerosis Society. All rights reserved).", "preferredTerm": "Bowel Control Scale Questionnaire", "submissionValue": "BWCS", "synonyms": ["BWCS01"]}, {"conceptId": "C106695", "definition": "Columbia-Suicide Severity Rating Scale (C-SSRS) Already Enrolled Subjects Version 1/14/2009 (Posner, K.; Brent, D.; Lucas, C.; Gould, M.; Stanley, B.; Brown, G.; Fisher, P.; Zelazny, J.; Burke, A.; Oquendo, M.; Mann, J.; copyright 2008 The Research Foundation for Mental Hygiene, Inc.).", "preferredTerm": "Columbia-Suicide Severity Rating Scale Already Enrolled Subjects Questionnaire", "submissionValue": "C-SSRS ALREADY ENROLLED SUBJECTS", "synonyms": ["CSS05"]}, {"conceptId": "C100765", "definition": "Columbia-Suicide Severity Rating Scale (C-SSRS) Baseline Version 2009-01-14 (Posner, K.; Brent, D.; Lucas, C.; Gould, M.; Stanley, B.; Brown, G.; Fisher, P.; Zelazny, J.; Burke, A.; Oquendo, M.; Mann, J.; copyright 2008 The Research Foundation for Mental Hygiene, Inc.).", "preferredTerm": "Columbia-Suicide Severity Rating Scale Baseline Questionnaire", "submissionValue": "C-SSRS BASELINE", "synonyms": ["CSS01"]}, {"conceptId": "C105164", "definition": "Columbia-Suicide Severity Rating Scale (C-SSRS) Baseline/Screening Version Phase 1 Study Version 1/14/2009 (Posner, K.; Brent, D.; Lucas, C.; Gould, M.; Stanley, B.; Brown, G.; Fisher, P.; Zelazny, J.; Burke, A.; Oquendo, M.; Mann, J.; copyright 2008 The Research Foundation for Mental Hygiene, Inc.).", "preferredTerm": "Columbia-Suicide Severity Rating Scale Baseline/Screening Version Phase 1 Study 1/14/09 Questionnaire", "submissionValue": "C-SSRS BASELINE/SCREENING VERSION PHASE 1 STUDY", "synonyms": ["CSS03"]}, {"conceptId": "C106696", "definition": "Columbia-Suicide Severity Rating Scale (C-SSRS) Baseline/Screening Version 1/14/2009 (Posner, K.; Brent, D.; Lucas, C.; Gould, M.; Stanley, B.; Brown, G.; Fisher, P.; Zelazny, J.; Burke, A.; Oquendo, M.; Mann, J.; copyright 2008 The Research Foundation for Mental Hygiene, Inc.).", "preferredTerm": "Columbia-Suicide Severity Rating Scale Baseline/Screening Version Questionnaire", "submissionValue": "C-SSRS BASELINE/SCREENING VERSION", "synonyms": ["CSS04"]}, {"conceptId": "C111377", "definition": "Columbia-Suicide Severity Rating Scale (C-SSRS) Children's Baseline Version 6/23/2010 (Posner, K.; Brent, D.; Lucas, C.; Gould, M.; Stanley, B.; Brown, G.; Fisher, P.; Zelazny, J.; Burke, A.; Oquendo, M.; Mann, J.; copyright 2008 The Research Foundation for Mental Hygiene, Inc.).", "preferredTerm": "Columbia-Suicide Severity Rating Scale Children's Baseline Questionnaire", "submissionValue": "C-SSRS CHILDREN'S BASELINE", "synonyms": ["CSS06"]}, {"conceptId": "C111378", "definition": "Columbia-Suicide Severity Rating Scale (C-SSRS) Children's Baseline/Screening Version 6/23/2010 (Posner, K.; Brent, D.; Lucas, C.; Gould, M.; Stanley, B.; Brown, G.; Fisher, P.; Zelazny, J.; Burke, A.; Oquendo, M.; Mann, J.; copyright 2008 The Research Foundation for Mental Hygiene, Inc.).", "preferredTerm": "Columbia-Suicide Severity Rating Scale Children's Baseline/Screening Questionnaire", "submissionValue": "C-SSRS CHILDREN'S BASELINE/SCREENING", "synonyms": ["CSS07"]}, {"conceptId": "C111379", "definition": "Columbia-Suicide Severity Rating Scale (C-SSRS) Children's Since Last Visit Version 6/23/2010 (Posner, K.; Brent, D.; Lucas, C.; Gould, M.; Stanley, B.; Brown, G.; Fisher, P.; Zelazny, J.; Burke, A.; Oquendo, M.; Mann, J.; copyright 2008 The Research Foundation for Mental Hygiene, Inc.).", "preferredTerm": "Columbia-Suicide Severity Rating Scale Children's Since Last Visit Questionnaire", "submissionValue": "C-SSRS CHILDREN'S SINCE LAST VISIT", "synonyms": ["CSS08"]}, {"conceptId": "C117996", "definition": "Columbia-Suicide Severity Rating Scale (C-SSRS) Lifetime/Recent Version 1/14/2009 (Posner, K.; Brent, D.; Lucas, C.; Gould, M.; Stanley, B.; Brown, G.; Fisher, P.; Zelazny, J.; Burke, A.; Oquendo, M.; Mann, J.; copyright 2008 The Research Foundation for Mental Hygiene, Inc.).", "preferredTerm": "Columbia-Suicide Severity Rating Scale Lifetime/Recent Version Questionnaire", "submissionValue": "C-SSRS LIFETIME/RECENT VERSION", "synonyms": ["CSS11"]}, {"conceptId": "C113873", "definition": "Columbia-Suicide Severity Rating Scale (C-SSRS) Pediatric/Cognitively Impaired Lifetime/Recent Version 6/23/2010 (Posner, K.; Brent, D.; Lucas, C.; Gould, M.; Stanley, B.; Brown, G.; Fisher, P.; Zelazny, J.; Burke, A.; Oquendo, M.; Mann, J.; copyright 2008 The Research Foundation for Mental Hygiene, Inc.).", "preferredTerm": "Columbia-Suicide Severity Rating Scale Pediatric/Cognitively Impaired Lifetime/Recent Questionnaire", "submissionValue": "C-SSRS PEDIATRIC/COGNITIVELY IMPAIRED LIFETIME/RECENT", "synonyms": ["CSS10"]}, {"conceptId": "C123661", "definition": "Columbia-Suicide Severity Rating Scale (C-SSRS) Pediatric/Cognitively Impaired - Lifetime Recent - Clinical Version 6/23/2010 (Posner, K.; Brent, D.; Lucas, C.; Gould, M.; Stanley, B.; Brown, G.; Fisher, P.; Zelazny, J.; Burke, A.; Oquendo, M.; Mann, J.; copyright 2008 The Research Foundation for Mental Hygiene, Inc).", "preferredTerm": "Columbia-Suicide Severity Rating Scale Pediatric/Cognitively Impaired - Lifetime Recent - Clinical Questionnaire", "submissionValue": "C-SSRS PEDIATRIC/COGNITIVELY IMPAIRED-LIFETIME RECENT-CLINICAL", "synonyms": ["CSS12"]}, {"conceptId": "C123662", "definition": "Columbia-Suicide Severity Rating Scale (C-SSRS) Pediatric/Cognitively Impaired - Since Last Visit - Clinical Version 6/23/2010 (Posner, K.; Brent, D.; Lucas, C.; Gould, M.; Stanley, B.; Brown, G.; Fisher, P.; Zelazny, J.; Burke, A.; Oquendo, M.; Mann, J.; copyright 2008 The Research Foundation for Mental Hygiene, Inc).", "preferredTerm": "Columbia-Suicide Severity Rating Scale Pediatric/Cognitively Impaired - Since Last Visit - Clinical Questionnaire", "submissionValue": "C-SSRS PEDIATRIC/COGNITIVELY IMPAIRED-SINCE LAST VISIT-CLINICAL", "synonyms": ["CSS13"]}, {"conceptId": "C111380", "definition": "Columbia-Suicide Severity Rating Scale (C-SSRS) Screening Version 1/14/2009 (Posner, K.; Brent, D.; Lucas, C.; Gould, M.; Stanley, B.; Brown, G.; Fisher, P.; Zelazny, J.; Burke, A.; Oquendo, M.; Mann, J.; copyright 2008 The Research Foundation for Mental Hygiene, Inc.).", "preferredTerm": "Columbia-Suicide Severity Rating Scale Screening Questionnaire", "submissionValue": "C-SSRS SCREENING", "synonyms": ["CSS09"]}, {"conceptId": "C103516", "definition": "Columbia-Suicide Severity Rating Scale (C-SSRS) Since Last Visit Version 1/14/2009 (Posner, K.; Brent, D.; Lucas, C.; Gould, M.; Stanley, B.; Brown, G.; Fisher, P.; Zelazny, J.; Burke, A.; Oquendo, M.; Mann, J.; copyright 2008 The Research Foundation for Mental Hygiene, Inc.).", "preferredTerm": "Columbia-Suicide Severity Rating Scale Since Last Visit Questionnaire", "submissionValue": "C-SSRS SINCE LAST VISIT", "synonyms": ["CSS02"]}, {"conceptId": "C119100", "definition": "Clinical COPD Questionnaire (CCQ) 1 Week Version (The CCQ is copyrighted 1999. It may not be altered, sold (paper or electronic), translated or adapted for another medium without the permission of T. van der Molen, Dept. of General Practice, University Medical Center Groningen, Postbus 196, 9700 AD Groningen, The Netherlands.).", "preferredTerm": "Clinical COPD Questionnaire 1 Week Version", "submissionValue": "CCQ 1 WEEK VERSION", "synonyms": ["CCQ02"]}, {"conceptId": "C119099", "definition": "Clinical COPD Questionnaire (CCQ) 24 Hour Version (The CCQ is copyrighted 1999. It may not be altered, sold (paper or electronic), translated or adapted for another medium without the permission of T. van der Molen, Dept. of General Practice, University Medical Center Groningen, Postbus 196, 9700 AD Groningen, The Netherlands.).", "preferredTerm": "Clinical COPD Questionnaire 24 Hour Version", "submissionValue": "CCQ 24 HOUR VERSION", "synonyms": ["CCQ01"]}, {"conceptId": "C119092", "definition": "Children's Dermatology Life Quality Index (CDLQI) (Copyright of M.S. Lewis-Jones, A.Y. Finlay, May 1993, this must not be copied without the permission of the authors).", "preferredTerm": "Children's Dermatology Life Quality Index Questionnaire", "submissionValue": "CDLQ", "synonyms": ["CDLQ1"]}, {"conceptId": "C102114", "definition": "Clinical Dementia Rating (CDR) (Morris, JC. Clinical Dementia Rating: A reliable and valid diagnostic and staging measure for dementia of the Alzheimer type. International Psychogeriatrics 1997: 9, Suppl. 1, 173-176).", "preferredTerm": "Clinical Dementia Rating Questionnaire", "submissionValue": "CDR", "synonyms": ["CDR01"]}, {"conceptId": "C132532", "definition": "Combat Exposure Scale (CES) (Keane, T.M., Fairbank, J.A., Caddell, J.M., Zimering, R.T., Taylor, K.L., & Mora, C. (1989). Clinical evaluation of a measure to assess combat exposure (PDF). Psychological Assessment, 1, 53-55).", "preferredTerm": "Combat Exposure Scale Questionnaire", "submissionValue": "CES", "synonyms": ["CES01"]}, {"conceptId": "C135738", "definition": "Clinical Global Impression (CGI) generic modification for any disease/condition concept use case (Modified from Guy W: ECDEU Assessment Manual for Psychopharmacology. Rockville, MD: U.S. Department of Health, Education, and Welfare; 1976).", "preferredTerm": "Clinical Global Impression Generic Modification Version Questionnaire", "submissionValue": "CGI", "synonyms": ["CGI02"]}, {"conceptId": "C117995", "definition": "Craig Handicap Assessment and Reporting Technique - Short Form Interview Version (CHART-SF INTERVIEW VERSION) (Whiteneck GG, Charlifue SW, Gerhart KA, Overholser JD, Richardson GN. Quantifying handicap: a new measure of long-term rehabilitation outcomes. Arch Phys Med Rehabil. 1992;73:519-526).", "preferredTerm": "Craig Handicap Assessment and Reporting Technique-Short Form Interview Version Questionnaire", "submissionValue": "CHART-SF INTERVIEW VERSION", "synonyms": ["CHSF1"]}, {"conceptId": "C119101", "definition": "Craig Handicap Assessment and Reporting Technique - Short Form Paper Version (CHART-SF PAPER VERSION) (Whiteneck GG, Charlifue SW, Gerhart KA, Overholser JD, Richardson GN. Quantifying handicap: a new measure of long-term rehabilitation outcomes. Arch Phys Med Rehabil. 1992;73:519-526).", "preferredTerm": "Craig Handicap Assessment and Reporting Technique - Short Form Paper Version Questionnaire", "submissionValue": "CHART-SF PAPER VERSION", "synonyms": ["CHSF2"]}, {"conceptId": "C100764", "definition": "Current Opioid Misuse Measure (COMM) (copyright 2010 Inflexxion, Inc., All rights reserved).", "preferredTerm": "Current Opioid Misuse Measure Questionnaire", "submissionValue": "COMM", "synonyms": ["COMM1"]}, {"conceptId": "C125756", "definition": "COPD Assessment Test (CAT) (COPD Assessment Test and the CAT logo is a trade mark of the GlaxoSmithKline group of companie. Copyright 2009 GlaxoSmithKline group of companies. All rights reserved).", "preferredTerm": "COPD Assessment Test Questionnaire", "submissionValue": "COPD ASSESSMENT TEST", "synonyms": ["CAT01"]}, {"conceptId": "C102115", "definition": "The Clinical Opiate Withdrawal Scale (COWS) (Wesson DR and Ling W. The Clinical Opiate Withdrawal Scale (COWS). J Psychoactive Drugs 2003;35(2):253-259).", "preferredTerm": "Clinical Opiate Withdrawal Scale Questionnaire", "submissionValue": "COWS", "synonyms": ["COWS1"]}, {"conceptId": "C121002", "definition": "Chronic Respiratory Questionnaire Self-Administered Standardized Format (CRQ-SAS) First Administration Version (Copyright 2001 McMaster University, Hamilton, Ontario, Canada. The Chronic Respiratory Questionnaire Self-Administered including the standardized Dyspnea Domain (CRQSAS), Principal authors G.H. Guyatt and Dr. H.J. Schunemann, is the copyright of McMaster University (Copyright 2001, McMaster University).", "preferredTerm": "Chronic Respiratory Questionnaire Self-Administered Standardized Format First Administration Version Questionnaire", "submissionValue": "CRQ-SAS FIRST ADMINISTRATION VERSION", "synonyms": ["CRQ01"]}, {"conceptId": "C121003", "definition": "Chronic Respiratory Questionnaire Self-Administered Standardized Format (CRQ-SAS) Follow-up Administration Version (Copyright 2001 McMaster University, Hamilton, Ontario, Canada. The Chronic Respiratory Questionnaire Self-Administered including the standardized Dyspnea Domain (CRQSAS), Principal authors G.H. Guyatt and Dr. H.J. Schunemann, is the copyright of McMaster University (Copyright 2001, McMaster University).", "preferredTerm": "Chronic Respiratory Questionnaire Self-Administered Standardized Format Follow-Up Administration Version Questionnaire", "submissionValue": "CRQ-SAS FOLLOW-UP ADMINISTRATION VERSION", "synonyms": ["CRQ02"]}, {"conceptId": "C105165", "definition": "Disability Assessment for Dementia (DAD) (copyright 1994 by L. Gauthier I. Gelinas. All rights reserved.).", "preferredTerm": "Disability Assessment for Dementia Questionnaire", "submissionValue": "DAD", "synonyms": ["DAD01"]}, {"conceptId": "C183575", "definition": "Diary for Irritable Bowel Syndrome Symptoms-Constipation v1.0 (DIBSS-C V1.0) (Copyright 2018 by the Critical Path Institute. All rights reserved. Fehnel S, Ervin C, McLeod L, Carson RT, Reasner DS, Hanlon J, Eremenco S, Coons SJ. Psychometric Evaluation of the Diary for Irritable Bowel Syndrome Symptoms-Constipation (DIBSS-C). Poster presented at ISPOR Europe 2018; November 10-14, 2018. Barcelona, Spain. Fehnel SE, Ervin CM, Carson RT, Rigoni G, Lackner JM, Coons SJ. Development of the Diary for Irritable Bowel Syndrome Symptoms to Assess Treatment Benefit in Clinical Trials: Foundational Qualitative Research. Value in Health 2017;20(4):618-626. Patient-Reported Outcome (PRO) Consortium Diary for Irritable Bowel Syndrome Symptoms-Constipation (DIBSS-C) v1.0 User Manual). No part of the DIBSS-C V1.0 may be reproduced, distributed, or transmitted in any form or by any means, including photocopying, recording, or other electronic or mechanical methods, without the prior written permission of the Critical Path Institute and payment of any applicable fees. Copyright Critical Path Institute, 2018. All rights reserved.", "preferredTerm": "Diary for Irritable Bowel Syndrome Symptoms-Constipation Version 1.0 Questionnaire", "submissionValue": "DIBSS-C V1.0", "synonyms": ["DIBC01"]}, {"conceptId": "C119102", "definition": "Dermatology Life Quality Index (DLQI) (Copyright Dermatology Life Quality Index. A Y Finlay, G K Khan, April 1992. www.dermatology.org.uk. This must not be copied without the permission of the authors). No part of the DLQI may be reproduced, distributed, or transmitted in any form or by any means, including photocopying, recording, or other electronic or mechanical methods, without the prior written permission of the Critical Path Institute and payment of any applicable fees. Copyright AY Finlay and GK Khan, 1992. All rights reserved.", "preferredTerm": "Dermatology Life Quality Index Questionnaire", "submissionValue": "DLQI", "synonyms": ["DLQI1"]}, {"conceptId": "C141694", "definition": "Deployment Risk and Resilience Inventory-2 (DRRI-2) (Vogt, D., Smith, B. N., King, D. W., & King, L. A. (2012). The Deployment Risk and Resilience Inventory-2 (DRRI-2) [Measurement instrument]. Available from http.ptsd.va.gov).", "preferredTerm": "Deployment Risk and Resilience Inventory-2 Questionnaire", "submissionValue": "DRRI-2", "synonyms": ["DRRI1"]}, {"conceptId": "C183596", "definition": "European Organisation for the Research and Treatment of Cancer Quality of Life Questionnaire - Anal Cancer (EORTC QLQ-ANL27) (QLQ-ANL27 Copyright 2016 EORTC Quality of Life Group. All rights reserved). No part of the EORTC QLQ-ANL27 may be reproduced, distributed, or transmitted in any form or by any means, including photocopying, recording, or other electronic or mechanical methods, without the prior written permission of the EORTC Quality of Life Group and payment of any applicable fees. Copyright EORTC Quality of Life Group 2016. All rights reserved.", "preferredTerm": "European Organization for the Research and Treatment of Cancer Quality of Life Questionnaire - Anal Cancer", "submissionValue": "EORTC QLQ-ANL27", "synonyms": ["EOR30"]}, {"conceptId": "C183592", "definition": "European Organisation for the Research and Treatment of Cancer Quality of Life Questionnaire - Cholangiocarcinoma and Gallbladder Cancer (EORTC QLQ-BIL21) (QLQ-BIL21 Copyright 2011 EORTC Quality of Life Group. All rights reserved. (Validated module)). No part of the EORTC QLQ-BIL21 may be reproduced, distributed, or transmitted in any form or by any means, including photocopying, recording, or other electronic or mechanical methods, without the prior written permission of the EORTC Quality of Life Group and payment of any applicable fees. Copyright EORTC Quality of Life Group 2011. All rights reserved.", "preferredTerm": "European Organization for the Research and Treatment of Cancer Quality of Life Questionnaire - Cholangiocarcinoma and Gallbladder Cancer", "submissionValue": "EORTC QLQ-BIL21", "synonyms": ["EOR24"]}, {"conceptId": "C183577", "definition": "European Organisation for the Research and Treatment of Cancer Quality of Life Questionnaire - Bone Metastases (EORTC QLQ-BM22) (QLQ-BM22 Copyright 2008 EORTC Quality of Life Group. All rights reserved. (Validated module)). No part of the EORTC QLQ-BM22 may be reproduced, distributed, or transmitted in any form or by any means, including photocopying, recording, or other electronic or mechanical methods, without the prior written permission of the EORTC Quality of Life Group and payment of any applicable fees. Copyright EORTC Quality of Life Group 2008. All rights reserved.", "preferredTerm": "European Organization for the Research and Treatment of Cancer Quality of Life Questionnaire - Bone Metastases", "submissionValue": "EORTC QLQ-BM22", "synonyms": ["EOR03"]}, {"conceptId": "C121794", "definition": "European Organisation for the Research and Treatment of Cancer Quality of Life Questionnaire - Brain (EORTC QLQ-BN20) (QLQ-BN20 Copyright 1994 EORTC Quality of Life Group. All rights reserved. (Validated module)). No part of the EORTC QLQ-BN20 may be reproduced, distributed, or transmitted in any form or by any means, including photocopying, recording, or other electronic or mechanical methods, without the prior written permission of the EORTC Quality of Life Group and payment of any applicable fees. Copyright EORTC Quality of Life Group 1994. All rights reserved.", "preferredTerm": "Quality of Life Questionnaire-Brain Neoplasm 20", "submissionValue": "EORTC QLQ-BN20", "synonyms": ["EOR04"]}, {"conceptId": "C148236", "definition": "European Organisation for the Research and Treatment of Cancer Quality of Life Questionnaire - Breast Version 1.0 (EORTC QLQ-BR23 V1.0) (QLQ-BR23 Copyright 1994 EORTC Quality of Life Group. All rights reserved. (Validated module). Version 1.0). No part of the EORTC QLQ-BR23 V1.0 may be reproduced, distributed, or transmitted in any form or by any means, including photocopying, recording, or other electronic or mechanical methods, without the prior written permission of the EORTC Quality of Life Group and payment of any applicable fees. Copyright EORTC Quality of Life Group 1994. All rights reserved.", "preferredTerm": "Quality of Life Questionnaire BR-23", "submissionValue": "EORTC QLQ-BR23 V1.0", "synonyms": ["EOR05"]}, {"conceptId": "C183597", "definition": "European Organisation for the Research and Treatment of Cancer Quality of Life Questionnaire - Breast Cancer Phase IV Module (EORTC QLQ-BR45 PHASE IV MODULE) (QLQ-BR45 Copyright 2018 EORTC Quality of Life Group. All rights reserved. (Phase IV module)). No part of the EORTC QLQ-BR45 PHASE IV MODULE may be reproduced, distributed, or transmitted in any form or by any means, including photocopying, recording, or other electronic or mechanical methods, without the prior written permission of the EORTC Quality of Life Group and payment of any applicable fees. Copyright EORTC Quality of Life Group 2018. All rights reserved.", "preferredTerm": "European Organization for the Research and Treatment of Cancer Quality of Life Questionnaire - Breast Cancer Phase IV Module Version", "submissionValue": "EORTC QLQ-BR45 PHASE IV MODULE", "synonyms": ["EOR31"]}, {"conceptId": "C183598", "definition": "European Organisation for the Research and Treatment of Cancer Quality of Life Questionnaire - Breast Reconstruction (EORTC QLQ-BRECON23) (QLQ-BRECON23 Copyright 2017 EORTC Quality of Life Group. All rights reserved. (Validated module)). No part of the EORTC QLQ-BRECON23 may be reproduced, distributed, or transmitted in any form or by any means, including photocopying, recording, or other electronic or mechanical methods, without the prior written permission of the EORTC Quality of Life Group and payment of any applicable fees. Copyright EORTC Quality of Life Group 2017. All rights reserved.", "preferredTerm": "European Organization for the Research and Treatment of Cancer Quality of Life Questionnaire - Breast Reconstruction", "submissionValue": "EORTC QLQ-BRECON23", "synonyms": ["EOR32"]}, {"conceptId": "C161653", "definition": "European Organisation for the Research and Treatment of Cancer Quality of Life Questionnaire - Paliative Care Version 1.0 (EORTC QLQ-C15-PAL V1.0) (Copyright 1995 and 2005 EORTC Quality of Life Group. All rights reserved. Version 1.0. (Validated module)). No part of the EORTC QLQ-C15-PAL V1.0 may be reproduced, distributed, or transmitted in any form or by any means, including photocopying, recording, or other electronic or mechanical methods, without the prior written permission of the EORTC Quality of Life Group and payment of any applicable fees. Copyright EORTC Quality of Life Group 1995 and 2005. All rights reserved.", "preferredTerm": "European Organization for the Research and Treatment of Cancer Quality of Life Questionnaire - Paliative Care Version 1.0", "submissionValue": "EORTC QLQ-C15-PAL V1.0", "synonyms": ["EOR02"]}, {"conceptId": "C161654", "definition": "European Organisation for the Research and Treatment of Cancer Quality of Life Questionnaire - Core 30 Version 3.0 (EORTC QLQ-C30 V3.0) (Copyright 1995 EORTC Quality of Life Group. All rights reserved. Version 3.0. (Validated module)). No part of the EORTC QLQ-C30 V3.0 may be reproduced, distributed, or transmitted in any form or by any means, including photocopying, recording, or other electronic or mechanical methods, without the prior written permission of the EORTC Quality of Life Group and payment of any applicable fees. Copyright EORTC Quality of Life Group 1995. All rights reserved.", "preferredTerm": "European Organization for the Research and Treatment of Cancer Quality of Life Questionnaire - Core 30 Version 3.0", "submissionValue": "EORTC QLQ-C30 V3.0", "synonyms": ["EOR01"]}, {"conceptId": "C125719", "definition": "European Organisation for the Research and Treatment of Cancer Quality of Life Questionnaire - Chemotherapy-Induced Peripheral Neuropathy (EORTC QLQ-CIPN20) (QLQ-CIPN20 Copyright 2003 EORTC Quality of Life Group. All rights reserved). No part of the EORTC QLQ-CIPN20 may be reproduced, distributed, or transmitted in any form or by any means, including photocopying, recording, or other electronic or mechanical methods, without the prior written permission of the EORTC Quality of Life Group and payment of any applicable fees. Copyright EORTC Quality of Life Group 2003. All rights reserved.", "preferredTerm": "Quality of Life Questionnaire - Chemotherapy-Induced Peripheral Neuropathy 20", "submissionValue": "EORTC QLQ-CIPN20", "synonyms": ["EOR25"]}, {"conceptId": "C183595", "definition": "European Organisation for the Research and Treatment of Cancer Quality of Life Questionnaire - Chronic Lymphocytic Leukaemia (EORTC QLQ-CLL17) (QLQ-CLL17 Copyright 2015 EORTC Quality of Life Group. All rights reserved). No part of the EORTC QLQ-CLL17 may be reproduced, distributed, or transmitted in any form or by any means, including photocopying, recording, or other electronic or mechanical methods, without the prior written permission of the EORTC Quality of Life Group and payment of any applicable fees. Copyright EORTC Quality of Life Group 2015. All rights reserved.", "preferredTerm": "European Organization for the Research and Treatment of Cancer Quality of Life Questionnaire - Chronic lymphocytic leukemia", "submissionValue": "EORTC QLQ-CLL17", "synonyms": ["EOR29"]}, {"conceptId": "C170644", "definition": "European Organisation for the Research and Treatment of Cancer Quality of Life Questionnaire - Colorectal Version 2.1 (EORTC QLQ-CR29 V2.1) (QLQ-CR29 Copyright 2006 EORTC Quality of Life Group. All rights reserved. Version 2.1. (Validated module)). No part of the EORTC QLQ-CR29 V2.1 may be reproduced, distributed, or transmitted in any form or by any means, including photocopying, recording, or other electronic or mechanical methods, without the prior written permission of the EORTC Quality of Life Group and payment of any applicable fees. Copyright EORTC Quality of Life Group 2006. All rights reserved.", "preferredTerm": "European Organization for the Research and Treatment of Cancer Quality of Life Questionnaire - Colorectal Cancer Module Version 2.1", "submissionValue": "EORTC QLQ-CR29 V2.1", "synonyms": ["EOR06"]}, {"conceptId": "C183578", "definition": "European Organisation for the Research and Treatment of Cancer Quality of Life Questionnaire - Cervical (EORTC QLQ-CX24) (QLQ-CX24 Copyright 2003 EORTC Quality of Life Group. All rights reserved. (Validated module)). No part of the EORTC QLQ-CX24 may be reproduced, distributed, or transmitted in any form or by any means, including photocopying, recording, or other electronic or mechanical methods, without the prior written permission of the EORTC Quality of Life Group and payment of any applicable fees. Copyright EORTC Quality of Life Group 2003. All rights reserved.", "preferredTerm": "European Organization for the Research and Treatment of Cancer Quality of Life Questionnaire - Cervical", "submissionValue": "EORTC QLQ-CX24", "synonyms": ["EOR07"]}, {"conceptId": "C183579", "definition": "European Organisation for the Research and Treatment of Cancer Quality of Life Questionnaire - Elderly Cancer Patients (EORTC QLQ-ELD14) (QLQ-ELD14 Copyright 2001 EORTC Quality of Life Group. All rights reserved. (Validated module)). No part of the EORTC QLQ-ELD14 may be reproduced, distributed, or transmitted in any form or by any means, including photocopying, recording, or other electronic or mechanical methods, without the prior written permission of the EORTC Quality of Life Group and payment of any applicable fees. Copyright EORTC Quality of Life Group 2001. All rights reserved.", "preferredTerm": "European Organization for the Research and Treatment of Cancer Quality of Life Questionnaire - Elderly Cancer Patients", "submissionValue": "EORTC QLQ-ELD14", "synonyms": ["EOR08"]}, {"conceptId": "C183580", "definition": "European Organisation for the Research and Treatment of Cancer Quality of Life Questionnaire - Endometrial (EORTC QLQ-EN24) (QLQ-EN24 Copyright 2010 EORTC Quality of Life Group. All rights reserved. (Validated module)). No part of the EORTC QLQ-EN24 may be reproduced, distributed, or transmitted in any form or by any means, including photocopying, recording, or other electronic or mechanical methods, without the prior written permission of the EORTC Quality of Life Group and payment of any applicable fees. Copyright EORTC Quality of Life Group 2010. All rights reserved.", "preferredTerm": "European Organization for the Research and Treatment of Cancer Quality of Life Questionnaire - Endometrial", "submissionValue": "EORTC QLQ-EN24", "synonyms": ["EOR09"]}, {"conceptId": "C183581", "definition": "European Organisation for the Research and Treatment of Cancer Quality of Life Questionnaire - Cancer Related Fatigue (EORTC QLQ-FA12) (QLQ-FA12 Copyright 2016 EORTC Quality of Life Group. All rights reserved. (Validated module)). No part of the EORTC QLQ-FA12 may be reproduced, distributed, or transmitted in any form or by any means, including photocopying, recording, or other electronic or mechanical methods, without the prior written permission of the EORTC Quality of Life Group and payment of any applicable fees. Copyright EORTC Quality of Life Group 2016. All rights reserved.", "preferredTerm": "European Organization for the Research and Treatment of Cancer Quality of Life Questionnaire - Cancer Related Fatigue", "submissionValue": "EORTC QLQ-FA12", "synonyms": ["EOR10"]}, {"conceptId": "C183585", "definition": "European Organisation for the Research and Treatment of Cancer Quality of Life Questionnaire - Neuroendocrine Carcinoid, Date 20th February 2006 Version (EORTC QLQ-GINET21 DATE 20TH FEBRUARY 2006) (QLQ-G.I.NET21 Copyright 2004 EORTC Quality of Life Group. All rights reserved. Date: 20th February 2006. (Validated module)). No part of the EORTC QLQ-GINET21 may be reproduced, distributed, or transmitted in any form or by any means, including photocopying, recording, or other electronic or mechanical methods, without the prior written permission of the EORTC Quality of Life Group and payment of any applicable fees. Copyright EORTC Quality of Life Group 2004. All rights reserved.", "preferredTerm": "European Organization for the Research and Treatment of Cancer Quality of Life Questionnaire - Neuroendocrine Carcinoid, Date 20th February 2006 Version", "submissionValue": "EORTC QLQ-GINET21 DATE 20TH FEBRUARY 2006", "synonyms": ["EOR15"]}, {"conceptId": "C136497", "definition": "European Organisation for the Research and Treatment of Cancer Quality of Life Questionnaire - Head & Neck Version 1 (EORTC QLQ-H&N35 V1) (Copyright QLQ-H&N35 1994 EORTC Quality of Life Group, version 1. All rights reserved. (Validated module)). No part of the EORTC QLQ-H&N35 V1 may be reproduced, distributed, or transmitted in any form or by any means, including photocopying, recording, or other electronic or mechanical methods, without the prior written permission of the EORTC Quality of Life Group and payment of any applicable fees. Copyright EORTC Quality of Life Group 1994. All rights reserved.", "preferredTerm": "Quality of Life Questionnaire - Head & Neck 35", "submissionValue": "EORTC QLQ-H&N35 V1", "synonyms": ["EOR11"]}, {"conceptId": "C183586", "definition": "European Organisation for the Research and Treatment of Cancer Quality of Life Questionnaire - Hepatocellular Carcinoma (EORTC QLQ-HCC18) (QLQ-HCC18 Copyright 2002 EORTC Quality of Life Group. All rights reserved. (Validated module)). No part of the EORTC QLQ-HCC18 may be reproduced, distributed, or transmitted in any form or by any means, including photocopying, recording, or other electronic or mechanical methods, without the prior written permission of the EORTC Quality of Life Group and payment of any applicable fees. Copyright EORTC Quality of Life Group 2002. All rights reserved.", "preferredTerm": "European Organization for the Research and Treatment of Cancer Quality of Life Questionnaire - Hepatocellular Carcinoma", "submissionValue": "EORTC QLQ-HCC18", "synonyms": ["EOR16"]}, {"conceptId": "C183587", "definition": "European Organisation for the Research and Treatment of Cancer Quality of Life Questionnaire - Information (EORTC QLQ-INFO25) (QLQ-C30-INFO25 Copyright 2004 EORTC Quality of Life Group. All rights reserved. (Validated module)). No part of the EORTC QLQ-INFO25 may be reproduced, distributed, or transmitted in any form or by any means, including photocopying, recording, or other electronic or mechanical methods, without the prior written permission of the EORTC Quality of Life Group and payment of any applicable fees. Copyright EORTC Quality of Life Group 2004. All rights reserved.", "preferredTerm": "European Organization for the Research and Treatment of Cancer Quality of Life Questionnaire - Information", "submissionValue": "EORTC QLQ-INFO25", "synonyms": ["EOR17"]}, {"conceptId": "C168555", "definition": "European Organisation for the Research and Treatment of Cancer Quality of Life Questionnaire - Lung Cancer Module (EORTC QLQ-LC13) (QLQ-C30-LC13 Copyright 1994 EORTC Quality of life Group. All rights reserved. (Validated module)). No part of the EORTC QLQ-LC13 may be reproduced, distributed, or transmitted in any form or by any means, including photocopying, recording, or other electronic or mechanical methods, without the prior written permission of the EORTC Quality of Life Group and payment of any applicable fees. Copyright EORTC Quality of Life Group 1994. All rights reserved.", "preferredTerm": "EORTC Quality of Life Questionnaire - Lung Cancer Module", "submissionValue": "EORTC QLQ-LC13", "synonyms": ["EOR18"]}, {"conceptId": "C183582", "definition": "European Organisation for the Research and Treatment of Cancer Quality of Life Questionnaire - Colorectal Liver Metastases (EORTC QLQ-LMC21) (QLQ-LMC21 Copyright 2002 EORTC Quality of Life Group. All rights reserved. (Validated module)). No part of the EORTC QLQ-LMC21 may be reproduced, distributed, or transmitted in any form or by any means, including photocopying, recording, or other electronic or mechanical methods, without the prior written permission of the EORTC Quality of Life Group and payment of any applicable fees. Copyright EORTC Quality of Life Group 2002. All rights reserved.", "preferredTerm": "European Organization for the Research and Treatment of Cancer Quality of Life Questionnaire - Colorectal Liver Metastases", "submissionValue": "EORTC QLQ-LMC21", "synonyms": ["EOR12"]}, {"conceptId": "C122694", "definition": "European Organisation for the Research and Treatment of Cancer Quality of Life Questionnaire - Multiple Myeloma (EORTC QLQ-MY20) (QLQ-MY20 Copyright 1999 EORTC Quality of Life Group. All rights reserved. (Validated module)). No part of the EORTC QLQ-MY20 may be reproduced, distributed, or transmitted in any form or by any means, including photocopying, recording, or other electronic or mechanical methods, without the prior written permission of the EORTC Quality of Life Group and payment of any applicable fees. Copyright EORTC Quality of Life Group 1999. All rights reserved.", "preferredTerm": "Quality of Life Questionnaire-Multiple Myeloma 20", "submissionValue": "EORTC QLQ-MY20", "synonyms": ["EOR19"]}, {"conceptId": "C183594", "definition": "European Organisation for the Research and Treatment of Cancer Quality of Life Questionnaire - Non-Muscle-Invasive Bladder Cancer (EORTC QLQ-NMIBC24) (QLQ-NMIBC24 Copyright 1994 EORTC Quality of Life Group. All rights reserved). No part of the EORTC QLQ-NMIBC24 may be reproduced, distributed, or transmitted in any form or by any means, including photocopying, recording, or other electronic or mechanical methods, without the prior written permission of the EORTC Quality of Life Group and payment of any applicable fees. Copyright EORTC Quality of Life Group 1994. All rights reserved.", "preferredTerm": "European Organization for the Research and Treatment of Cancer Quality of Life Questionnaire - Non-Muscle-Invasive Bladder Cancer", "submissionValue": "EORTC QLQ-NMIBC24", "synonyms": ["EOR28"]}, {"conceptId": "C183588", "definition": "European Organisation for the Research and Treatment of Cancer Quality of Life Questionnaire - Oesophageal (EORTC QLQ-OES18) (QLQ-OES18 Copyright 1999 EORTC Quality of Life Group. All rights reserved. (Validated module)). No part of the EORTC QLQ-OES18 may be reproduced, distributed, or transmitted in any form or by any means, including photocopying, recording, or other electronic or mechanical methods, without the prior written permission of the EORTC Quality of Life Group and payment of any applicable fees. Copyright EORTC Quality of Life Group 1999. All rights reserved.", "preferredTerm": "European Organization for the Research and Treatment of Cancer Quality of Life Questionnaire - Esophageal", "submissionValue": "EORTC QLQ-OES18", "synonyms": ["EOR20"]}, {"conceptId": "C183589", "definition": "European Organisation for the Research and Treatment of Cancer Quality of Life Questionnaire - Oesophago-Gastric Phase IV Module (EORTC QLQ-OG25 PHASE IV MODULE) (QLQ-OG25 Copyright 2007 EORTC Quality of Life Group. All rights reserved. (Phase IV module)). No part of the EORTC QLQ-OG25 may be reproduced, distributed, or transmitted in any form or by any means, including photocopying, recording, or other electronic or mechanical methods, without the prior written permission of the EORTC Quality of Life Group and payment of any applicable fees. Copyright EORTC Quality of Life Group 2007. All rights reserved.", "preferredTerm": "European Organization for the Research and Treatment of Cancer Quality of Life Questionnaire - Esophago-Gastric Phase IV Module Version", "submissionValue": "EORTC QLQ-OG25 PHASE IV MODULE", "synonyms": ["EOR21"]}, {"conceptId": "C183583", "definition": "European Organisation for the Research and Treatment of Cancer Quality of Life Questionnaire - Oral Health (EORTC QLQ-OH15) (QLQ-OH15 Copyright 2016 EORTC Quality of Life Group. All rights reserved. (Validated module)). No part of the EORTC QLQ-OH15 may be reproduced, distributed, or transmitted in any form or by any means, including photocopying, recording, or other electronic or mechanical methods, without the prior written permission of the EORTC Quality of Life Group and payment of any applicable fees. Copyright EORTC Quality of Life Group 2016. All rights reserved.", "preferredTerm": "European Organization for the Research and Treatment of Cancer Quality of Life Questionnaire - Oral Health", "submissionValue": "EORTC QLQ-OH15", "synonyms": ["EOR13"]}, {"conceptId": "C183590", "definition": "European Organisation for the Research and Treatment of Cancer Quality of Life Questionnaire - Ovarian (EORTC QLQ-OV28) (QLQ-OV28 Copyright 1997 EORTC Quality of Life Group. All rights reserved. (Validated module)). No part of the EORTC QLQ-OV28 may be reproduced, distributed, or transmitted in any form or by any means, including photocopying, recording, or other electronic or mechanical methods, without the prior written permission of the EORTC Quality of Life Group and payment of any applicable fees. Copyright EORTC Quality of Life Group 1997. All rights reserved.", "preferredTerm": "European Organization for the Research and Treatment of Cancer Quality of Life Questionnaire - Ovarian", "submissionValue": "EORTC QLQ-OV28", "synonyms": ["EOR22"]}, {"conceptId": "C183593", "definition": "European Organisation for the Research and Treatment of Cancer Quality of Life Questionnaire - Pancreatic Cancer Phase III Module (EORTC QLQ-PAN26 PHASE III MODULE) (QLQ-C30-PAN26 Copyright 1999 EORTC Quality of Life Group. All rights reserved. (Phase III module)). No part of the EORTC QLQ-PAN26 PHASE III MODULE may be reproduced, distributed, or transmitted in any form or by any means, including photocopying, recording, or other electronic or mechanical methods, without the prior written permission of the EORTC Quality of Life Group and payment of any applicable fees. Copyright EORTC Quality of Life Group 1999. All rights reserved.", "preferredTerm": "European Organization for the Research and Treatment of Cancer Quality of Life Questionnaire - Pancreatic Cancer Phase III Module Version", "submissionValue": "EORTC QLQ-PAN26 PHASE III MODULE", "synonyms": ["EOR26"]}, {"conceptId": "C183591", "definition": "European Organisation for the Research and Treatment of Cancer Quality of Life Questionnaire - Prostate (EORTC QLQ-PR25) (QLQ-PR25 Copyright 1999 EORTC Quality of Life Group. All rights reserved. (Validated module)). No part of the EORTC QLQ-PR25 may be reproduced, distributed, or transmitted in any form or by any means, including photocopying, recording, or other electronic or mechanical methods, without the prior written permission of the EORTC Quality of Life Group and payment of any applicable fees. Copyright EORTC Quality of Life Group 1999. All rights reserved.", "preferredTerm": "European Organization for the Research and Treatment of Cancer Quality of Life Questionnaire - Prostate", "submissionValue": "EORTC QLQ-PR25", "synonyms": ["EOR23"]}, {"conceptId": "C183584", "definition": "European Organisation for the Research and Treatment of Cancer Quality of Life Questionnaire - Gastric (EORTC QLQ-STO22) (QLQ-STO22 Copyright 1999 EORTC Quality of Life Group. All rights reserved. (Validated module)). No part of the EORTC QLQ-STO22 may be reproduced, distributed, or transmitted in any form or by any means, including photocopying, recording, or other electronic or mechanical methods, without the prior written permission of the EORTC Quality of Life Group and payment of any applicable fees. Copyright EORTC Quality of Life Group 1999. All rights reserved.", "preferredTerm": "European Organization for the Research and Treatment of Cancer Quality of Life Questionnaire - Gastric", "submissionValue": "EORTC QLQ-STO22", "synonyms": ["EOR14"]}, {"conceptId": "C132533", "definition": "Edinburgh Postnatal Depression Scale (EPDS) (Copyright by Cox, J.L., Holden, J.M., and Sagovsky, R. 1987. Detection of postnatal depression: Development of the 10-item Edinburgh Postnatal Depression Scale. British Journal of Psychiatry 150:782-786).", "preferredTerm": "Edinburgh Postnatal Depression Scale Questionnaire", "submissionValue": "EPDS", "synonyms": ["EPDS01"]}, {"conceptId": "C127367", "definition": "The Expanded Prostate Cancer Index Composite Short Form (EPIC-26) (Copyright 2002. The University of Michigan. All rights reserved).", "preferredTerm": "The Expanded Prostate Cancer Index Composite Short Form Questionnaire", "submissionValue": "EPIC-26", "synonyms": ["EPIC1"]}, {"conceptId": "C127368", "definition": "Expanded Prostate Cancer Index Composite for Clinical Practice (EPIC-CP) (Copyright 2016 Beth Israel Deaconess Medical Center 330 Brookline Avenue, Boston, MA 02215).", "preferredTerm": "Expanded Prostate Cancer Index Composite for Clinical Practice Questionnaire", "submissionValue": "EPIC-CP", "synonyms": ["EPIC2"]}, {"conceptId": "C66957", "definition": "European Quality of Life Five Dimension Three Level Scale (EQ-5D-3L) (Copyright 1990 EuroQol Group. EQ-5D is a trade mark of the EuroQol Group).", "preferredTerm": "European Quality of Life Five Dimension Three Level Questionnaire", "submissionValue": "EQ-5D-3L", "synonyms": ["EQ5D01"]}, {"conceptId": "C102117", "definition": "European Quality of Life Five Dimension Five Level Scale (EQ-5D-5L) (Copyright 2009 EuroQol Group. EQ-5D is a trade mark of the EuroQol Group).", "preferredTerm": "European Quality of Life Five Dimension Five Level Scale Questionnaire", "submissionValue": "EQ-5D-5L", "synonyms": ["EQ5D02"]}, {"conceptId": "C103517", "definition": "Epworth Sleepiness Scale (ESS) (copyright Murray W. Johns, 1990-1997. All rights reserved.).", "preferredTerm": "Epworth Sleepiness Scale Questionnaire", "submissionValue": "ESS", "synonyms": ["ESS01"]}, {"conceptId": "C123666", "definition": "Exacerbations of Chronic Pulmonary Disease Tool (EXACT) Patient-Reported Outcome (PRO) (Nancy K. Leidy, EXACT-PRO Initiative, Evidera, 7101 Wisconsin Avenue, Suite 1400, Bethesda, MD; EXACT copyright 2013, Evidera, Inc. All rights reserved). This also includes the subset EXACT-Respiratory Symptoms (E-RS) questions. http://www.exactproinitiative.com", "preferredTerm": "Exacerbations of Chronic Pulmonary Disease Tool Patient-Reported Outcome Questionnaire", "submissionValue": "EXACT", "synonyms": ["EXACT1"]}, {"conceptId": "C125759", "definition": "Expanded Disability Rating Scale - Postacute Interview Caregiver Version (EXPANDED DRS-PI CAREGIVER VERSION) (Malec JF, Hammond FM, Giacino JT, Whyte J, Wright J. Structured Interview to Improve the Reliability and Psychometric Integrity of the Disability Rating Scale. Arch Phys Med Rehabil Sept 2012;93:1603-1608).", "preferredTerm": "Expanded Disability Rating Scale - Postacute Interview Caregiver Version Questionnaire", "submissionValue": "EXPANDED DRS-PI CAREGIVER VERSION", "synonyms": ["ED1"]}, {"conceptId": "C125760", "definition": "Expanded Disability Rating Scale - Postacute Interview Survivor Version (EXPANDED DRS-PI SURVIVOR VERSION) (Malec JF, Hammond FM, Giacino JT, Whyte J, Wright J. Structured Interview to Improve the Reliability and Psychometric Integrity of the Disability Rating Scale. Arch Phys Med Rehabil Sept 2012;93:1603-1608).", "preferredTerm": "Expanded Disability Rating Scale - Postacute Interview Survivor Version Questionnaire", "submissionValue": "EXPANDED DRS-PI SURVIVOR VERSION", "synonyms": ["ED2"]}, {"conceptId": "C179973", "definition": "Functional Assessment of Anorexia/Cachexia Treatment Version 4 (FAACT V4) (Copyright 1987, 1997 David Cella, Ph.D. All Rights Reserved; Questionnaires and all related subscales, translations, and adaptations ('FACIT System') are owned and copyrighted by David Cella, Ph.D. The ownership and copyright of the FACIT System resides strictly with Dr. Cella. Dr. Cella has granted FACIT.org the right to license usage of the FACIT System to other parties).", "preferredTerm": "Functional Assessment of Anorexia/Cachexia Treatment Version 4 Questionnaire", "submissionValue": "FAACT V4", "synonyms": ["FAC065"]}, {"conceptId": "C155325", "definition": "Functional Assessment of Chronic Illness Therapy-Dyspnea Scale 33 Item Bank (FACIT-DYSPNEA 33 ITEM BANK) (These materials discuss and/or include FACIT Measurement System, which is owned exclusively by Dr. David Cella. No part of the FACIT Measurement System may be reproduced, distributed, or transmitted in any form or by any means, including photocopying, recording, or other electronic or mechanical methods, without the prior written permission of Dr. David Cella and payment of any applicable fees. Copyright Dr. David Cella. All rights reserved.)", "preferredTerm": "Functional Assessment of Chronic Illness Therapy-Dyspnea Scale 33 Item Bank Questionnaire", "submissionValue": "FACIT-DYSPNEA 33 ITEM BANK", "synonyms": ["FAC100"]}, {"conceptId": "C121853", "definition": "Functional Assessment of Chronic Illness Therapy-Dyspnea 10 Item Short Form (FACIT-DYSPNEA SF) (These materials discuss and/or include FACIT Measurement System, which is owned exclusively by Dr. David Cella. No part of the FACIT Measurement System may be reproduced, distributed, or transmitted in any form or by any means, including photocopying, recording, or other electronic or mechanical methods, without the prior written permission of Dr. David Cella and payment of any applicable fees. Copyright Dr. David Cella. All rights reserved.)", "preferredTerm": "FACIT-Dyspnea 10 Item Short Form", "submissionValue": "FACIT-DYSPNEA SF", "synonyms": ["FAC084"]}, {"conceptId": "C129105", "definition": "Functional Assessment of Chronic Illness Therapy-Fatigue Version 4 (FACIT-F V4) (These materials discuss and/or include FACIT Measurement System, which is owned exclusively by Dr. David Cella. No part of the FACIT Measurement System may be reproduced, distributed, or transmitted in any form or by any means, including photocopying, recording, or other electronic or mechanical methods, without the prior written permission of Dr. David Cella and payment of any applicable fees. Copyright Dr. David Cella. All rights reserved.)", "preferredTerm": "Functional Assessment of Chronic Illness Therapy-Fatigue Version 4 Questionnaire", "submissionValue": "FACIT-F V4", "synonyms": ["FAC071"]}, {"conceptId": "C147585", "definition": "Functional Assessment of Chronic Illness Therapy-Fatigue 13-Item Scale Version 4 (FACIT-FATIGUE 13-Item V4) (These materials discuss and/or include FACIT Measurement System, which is owned exclusively by Dr. David Cella. No part of the FACIT Measurement System may be reproduced, distributed, or transmitted in any form or by any means, including photocopying, recording, or other electronic or mechanical methods, without the prior written permission of Dr. David Cella and payment of any applicable fees. Copyright Dr. David Cella. All rights reserved.)", "preferredTerm": "Functional Assessment of Chronic Illness Therapy-Fatigue 13-Item Scale Version 4 Questionnaire", "submissionValue": "FACIT-FATIGUE 13-ITEM V4", "synonyms": ["FAC070"]}, {"conceptId": "C183576", "definition": "Functional Assessment of Chronic Illness Therapy-Searchable Item Library Adult (FACIT-SEARCHABLE ITEM LIBRARY ADULT) (These materials discuss and/or include the FACIT Measurement System, which is owned exclusively by Dr. David Cella. No part of the FACIT Measurement System may be reproduced, distributed, or transmitted in any form or by any means, including photocopying recording, or other electronic or mechanical methods, without the prior written permission of Dr. David Cella and payment of any applicable fees. Copyright Dr. David Cella. All rights reserved).", "preferredTerm": "Functional Assessment of Chronic Illness Therapy-Searchable Item Library Adult Version Questionnaire", "submissionValue": "FACIT-SEARCHABLE ITEM LIBRARY ADULT", "synonyms": ["FSIL"]}, {"conceptId": "C129108", "definition": "Functional Assessment of Cancer Therapy-Breast Version 4 (FACT-B V4) (These materials discuss and/or include FACIT Measurement System, which is owned exclusively by Dr. David Cella. No part of the FACIT Measurement System may be reproduced, distributed, or transmitted in any form or by any means, including photocopying, recording, or other electronic or mechanical methods, without the prior written permission of Dr. David Cella and payment of any applicable fees. Copyright Dr. David Cella. All rights reserved.)", "preferredTerm": "Functional Assessment of Cancer Therapy-Breast Version 4 Questionnaire", "submissionValue": "FACT-B V4", "synonyms": ["FAC005"]}, {"conceptId": "C155326", "definition": "Functional Assessment of Cancer Therapy-Bladder Version 4 (FACT-BL V4) (These materials discuss and/or include FACIT Measurement System, which is owned exclusively by Dr. David Cella. No part of the FACIT Measurement System may be reproduced, distributed, or transmitted in any form or by any means, including photocopying, recording, or other electronic or mechanical methods, without the prior written permission of Dr. David Cella and payment of any applicable fees. Copyright Dr. David Cella. All rights reserved.)", "preferredTerm": "Functional Assessment of Cancer Therapy-Bladder Version 4 Questionnaire", "submissionValue": "FACT-BL V4", "synonyms": ["FAC006"]}, {"conceptId": "C147583", "definition": "Functional Assessment of Cancer Therapy-Bone Marrow Transplant Version 4 (FACT-BMT V4) (These materials discuss and/or include FACIT Measurement System, which is owned exclusively by Dr. David Cella. No part of the FACIT Measurement System may be reproduced, distributed, or transmitted in any form or by any means, including photocopying, recording, or other electronic or mechanical methods, without the prior written permission of Dr. David Cella and payment of any applicable fees. Copyright Dr. David Cella. All rights reserved.)", "preferredTerm": "Functional Assessment of Cancer Therapy-Bone Marrow Transplant Version 4 Questionnaire", "submissionValue": "FACT-BMT V4", "synonyms": ["FAC061"]}, {"conceptId": "C179974", "definition": "Functional Assessment of Cancer Therapy-Bone Pain Version 4 (FACT-BP V4) (Copyright 1987, 1997 David Cella, Ph.D. All Rights Reserved; Questionnaires and all related subscales, translations, and adaptations ('FACIT System') are owned and copyrighted by David Cella, Ph.D. The ownership and copyright of the FACIT System resides strictly with Dr. Cella. Dr. Cella has granted FACIT.org the right to license usage of the FACIT System to other parties). These materials discuss and/or include the Functional Assessment of Cancer Therapy-Bone Pain Version 4 (FACT-BP V4), which is owned exclusively by David Cella, Ph.D. No part of the FACT-BP V4 may be reproduced, distributed, or transmitted in any form or by any means, including photocopying recording, or other electronic or mechanical methods, without the prior written permission of David Cella, Ph.D. and payment of any applicable fees. Copyright David Cella 1987, 1997. All rights reserved.", "preferredTerm": "Functional Assessment of Cancer Therapy-Bone Pain Version 4 Questionnaire", "submissionValue": "FACT-BP V4", "synonyms": ["FAC074"]}, {"conceptId": "C150914", "definition": "Functional Assessment of Cancer Therapy-Biologic Response Modifiers Version 4 (FACT-BRM V4) (These materials discuss and/or include FACIT Measurement System, which is owned exclusively by Dr. David Cella. No part of the FACIT Measurement System may be reproduced, distributed, or transmitted in any form or by any means, including photocopying, recording, or other electronic or mechanical methods, without the prior written permission of Dr. David Cella and payment of any applicable fees. Copyright Dr. David Cella. All rights reserved.)", "preferredTerm": "Functional Assessment of Cancer Therapy-Biologic Response Modifiers Version 4 Questionnaire", "submissionValue": "FACT-BRM V4", "synonyms": ["FAC062"]}, {"conceptId": "C150912", "definition": "Functional Assessment of Cancer Therapy-Colorectal Version 4 (FACT-C V4) (These materials discuss and/or include FACIT Measurement System, which is owned exclusively by Dr. David Cella. No part of the FACIT Measurement System may be reproduced, distributed, or transmitted in any form or by any means, including photocopying, recording, or other electronic or mechanical methods, without the prior written permission of Dr. David Cella and payment of any applicable fees. Copyright Dr. David Cella. All rights reserved.)", "preferredTerm": "Functional Assessment of Cancer Therapy-Colorectal Version 4 Questionnaire", "submissionValue": "FACT-C V4", "synonyms": ["FAC008"]}, {"conceptId": "C103850", "definition": "Functional Assessment of Cancer Therapy-Cognitive Function Version 3 (FACT-COG V3) (These materials discuss and/or include FACIT Measurement System, which is owned exclusively by Dr. David Cella. No part of the FACIT Measurement System may be reproduced, distributed, or transmitted in any form or by any means, including photocopying, recording, or other electronic or mechanical methods, without the prior written permission of Dr. David Cella and payment of any applicable fees. Copyright Dr. David Cella. All rights reserved.)", "preferredTerm": "FACT-Cognitive Function", "submissionValue": "FACT-COG V3", "synonyms": ["FAC075"]}, {"conceptId": "C127369", "definition": "Functional Assessment of Cancer Therapy-General Version 4 (FACT-G V4) (These materials discuss and/or include FACIT Measurement System, which is owned exclusively by Dr. David Cella. No part of the FACIT Measurement System may be reproduced, distributed, or transmitted in any form or by any means, including photocopying, recording, or other electronic or mechanical methods, without the prior written permission of Dr. David Cella and payment of any applicable fees. Copyright Dr. David Cella. All rights reserved.)", "preferredTerm": "Functional Assessment of Cancer Therapy-General Version 4 Questionnaire", "submissionValue": "FACT-G V4", "synonyms": ["FAC001"]}, {"conceptId": "C130312", "definition": "Functional Assessment of Cancer Therapy-Hepatobiliary Version 4 (FACT-HEP V4) (These materials discuss and/or include FACIT Measurement System, which is owned exclusively by Dr. David Cella. No part of the FACIT Measurement System may be reproduced, distributed, or transmitted in any form or by any means, including photocopying, recording, or other electronic or mechanical methods, without the prior written permission of Dr. David Cella and payment of any applicable fees. Copyright Dr. David Cella. All rights reserved.)", "preferredTerm": "Functional Assessment of Cancer Therapy-Hepatobiliary Version 4 Questionnaire", "submissionValue": "FACT-HEP V4", "synonyms": ["FAC015"]}, {"conceptId": "C150916", "definition": "Functional Assessment of Cancer Therapy-Lung Version 4 (FACT-L V4) (These materials discuss and/or include FACIT Measurement System, which is owned exclusively by Dr. David Cella. No part of the FACIT Measurement System may be reproduced, distributed, or transmitted in any form or by any means, including photocopying, recording, or other electronic or mechanical methods, without the prior written permission of Dr. David Cella and payment of any applicable fees. Copyright Dr. David Cella. All rights reserved.)", "preferredTerm": "Functional Assessment of Cancer Therapy-Lung Version 4 Questionnaire", "submissionValue": "FACT-L V4", "synonyms": ["FAC016"]}, {"conceptId": "C130311", "definition": "Functional Assessment of Cancer Therapy-Leukemia Version 4 (FACT-LEU V4) (These materials discuss and/or include FACIT Measurement System, which is owned exclusively by Dr. David Cella. No part of the FACIT Measurement System may be reproduced, distributed, or transmitted in any form or by any means, including photocopying, recording, or other electronic or mechanical methods, without the prior written permission of Dr. David Cella and payment of any applicable fees. Copyright Dr. David Cella. All rights reserved.)", "preferredTerm": "Functional Assessment of Cancer Therapy-Leukemia Version 4 Questionnaire", "submissionValue": "FACT-LEU V4", "synonyms": ["FAC017"]}, {"conceptId": "C130313", "definition": "Functional Assessment of Cancer Therapy-Lymphoma Version 4 (FACT-LYM V4) (These materials discuss and/or include FACIT Measurement System, which is owned exclusively by Dr. David Cella. No part of the FACIT Measurement System may be reproduced, distributed, or transmitted in any form or by any means, including photocopying, recording, or other electronic or mechanical methods, without the prior written permission of Dr. David Cella and payment of any applicable fees. Copyright Dr. David Cella. All rights reserved.)", "preferredTerm": "Functional Assessment of Cancer Therapy-Lymphoma Version 4 Questionnaire", "submissionValue": "FACT-LYM V4", "synonyms": ["FAC018"]}, {"conceptId": "C127371", "definition": "Functional Assessment of Cancer Therapy-Prostate Version 4 (FACT-P V4) (These materials discuss and/or include FACIT Measurement System, which is owned exclusively by Dr. David Cella. No part of the FACIT Measurement System may be reproduced, distributed, or transmitted in any form or by any means, including photocopying, recording, or other electronic or mechanical methods, without the prior written permission of Dr. David Cella and payment of any applicable fees. Copyright Dr. David Cella. All rights reserved.)", "preferredTerm": "Functional Assessment of Cancer Therapy-Prostate Version 4 Questionnaire", "submissionValue": "FACT-P V4", "synonyms": ["FAC023"]}, {"conceptId": "C150913", "definition": "Functional Assessment of Cancer Therapy-Taxane Version 4 (FACT-Taxane V4) (These materials discuss and/or include FACIT Measurement System, which is owned exclusively by Dr. David Cella. No part of the FACIT Measurement System may be reproduced, distributed, or transmitted in any form or by any means, including photocopying, recording, or other electronic or mechanical methods, without the prior written permission of Dr. David Cella and payment of any applicable fees. Copyright Dr. David Cella. All rights reserved.)", "preferredTerm": "Functional Assessment of Cancer Therapy-Taxane Version 4 Questionnaire", "submissionValue": "FACT-TAXANE V4", "synonyms": ["FAC063"]}, {"conceptId": "C150915", "definition": "Functional Assessment of Cancer Therapy/Gynecologic Oncology Group-Neurotoxicity Version 4 (FACT/GOG-NTX V4) (These materials discuss and/or include FACIT Measurement System, which is owned exclusively by Dr. David Cella. No part of the FACIT Measurement System may be reproduced, distributed, or transmitted in any form or by any means, including photocopying, recording, or other electronic or mechanical methods, without the prior written permission of Dr. David Cella and payment of any applicable fees. Copyright Dr. David Cella. All rights reserved.)", "preferredTerm": "Functional Assessment of Cancer Therapy/Gynecologic Oncology Group-Neurotoxicity Version 4 Questionnaire", "submissionValue": "FACT/GOG-NTX V4", "synonyms": ["FAC057"]}, {"conceptId": "C112521", "definition": "Functional Assessment of Multiple Sclerosis Version 4 (FAMS) (These materials discuss and/or include FACIT Measurement System, which is owned exclusively by Dr. David Cella. No part of the FACIT Measurement System may be reproduced, distributed, or transmitted in any form or by any means, including photocopying, recording, or other electronic or mechanical methods, without the prior written permission of Dr. David Cella and payment of any applicable fees. Copyright Dr. David Cella. All rights reserved.)", "preferredTerm": "Functional Assessment of Multiple Sclerosis Questionnaire", "submissionValue": "FAMS", "synonyms": ["FAMS01"]}, {"conceptId": "C138336", "definition": "Functional Assessment of Cancer Therapy-Brain Symptom Index (FBRSI) (These materials discuss and/or include FACIT Measurement System, which is owned exclusively by Dr. David Cella. No part of the FACIT Measurement System may be reproduced, distributed, or transmitted in any form or by any means, including photocopying, recording, or other electronic or mechanical methods, without the prior written permission of Dr. David Cella and payment of any applicable fees. Copyright Dr. David Cella. All rights reserved.)", "preferredTerm": "Functional Assessment of Cancer Therapy-Brain Symptom Index Questionnaire", "submissionValue": "FBRSI", "synonyms": ["FAC029"]}, {"conceptId": "C103518", "definition": "Revised Fibromyalgia Impact Questionnaire (FIQR) (copyright 2009 Bennett RM and Friend. All Rights Reserved.). No part of the FIQR may be reproduced, distributed, or transmitted in any form or by any means, including photocopying, recording, or other electronic or mechanical methods, without the prior written permission of Bennett RM and Friend and payment of any applicable fees. Copyright Bennett RM and Friend, 2009. All rights reserved.", "preferredTerm": "Revised Fibromyalgia Impact Questionnaire", "submissionValue": "FIQR", "synonyms": ["FIQR01"]}, {"conceptId": "C118498", "definition": "Functional Assessment of Cancer Therapy-Kidney Symptom Index-15 (FKSI-15) (These materials discuss and/or include FACIT Measurement System, which is owned exclusively by Dr. David Cella. No part of the FACIT Measurement System may be reproduced, distributed, or transmitted in any form or by any means, including photocopying, recording, or other electronic or mechanical methods, without the prior written permission of Dr. David Cella and payment of any applicable fees. Copyright Dr. David Cella. All rights reserved.)", "preferredTerm": "FKSI-15 Questionnaire", "submissionValue": "FKSI-15", "synonyms": ["FAC039"]}, {"conceptId": "C150917", "definition": "Functional Assessment of Cancer Therapy-Kidney Symptom Index-Disease-Related Symptoms Version 4 (FKSI-DRS V4) (These materials discuss and/or include FACIT Measurement System, which is owned exclusively by Dr. David Cella. No part of the FACIT Measurement System may be reproduced, distributed, or transmitted in any form or by any means, including photocopying, recording, or other electronic or mechanical methods, without the prior written permission of Dr. David Cella and payment of any applicable fees. Copyright Dr. David Cella. All rights reserved.)", "preferredTerm": "Functional Assessment of Cancer Therapy-Kidney Symptom Index-Disease-Related Symptoms Version 4 Questionnaire", "submissionValue": "FKSI-DRS V4", "synonyms": ["FAC041"]}, {"conceptId": "C138338", "definition": "Functional Assessment of Cancer Therapy-Lung Symptom Index (FLSI) (These materials discuss and/or include FACIT Measurement System, which is owned exclusively by Dr. David Cella. No part of the FACIT Measurement System may be reproduced, distributed, or transmitted in any form or by any means, including photocopying, recording, or other electronic or mechanical methods, without the prior written permission of Dr. David Cella and payment of any applicable fees. Copyright Dr. David Cella. All rights reserved.)", "preferredTerm": "Functional Assessment of Cancer Therapy-Lung Symptom Index Questionnaire", "submissionValue": "FLSI", "synonyms": ["FAC043"]}, {"conceptId": "C119093", "definition": "Influenza Intensity and Impact Questionnaire (Flu-iiQ) Once Daily (FLU-IIQ ONCE DAILY) (Copyright RH Osborne 2006. No part of the FLU-IIQ ONCE DAILY may be copied or reproduced in any form without written permission from the author: measuredsolutions (at) bigpond (dot) com). No part of the Flu-iiQ may be reproduced, distributed, or transmitted in any form or by any means, including photocopying, recording, or other electronic or mechanical methods, without the prior written permission of RH Osborne and payment of any applicable fees. Copyright RH Osborne, 2006. All rights reserved.", "preferredTerm": "Influenza Intensity and Impact Questionnaire Once Daily Version", "submissionValue": "FLU-IIQ ONCE DAILY", "synonyms": ["FLUIQ1"]}, {"conceptId": "C119094", "definition": "Influenza Intensity and Impact Questionnaire (Flu-iiQ) Twice Daily (FLU-IIQ TWICE DAILY) (Copyright RH Osborne 2006. No part of the Flu-iiQ may be copied or reproduced in any form without written permission from the author: measuredsolutions (at) bigpond (dot) com). No part of the FLU-IIQ TWICE DAILY may be reproduced, distributed, or transmitted in any form or by any means, including photocopying, recording, or other electronic or mechanical methods, without the prior written permission of RH Osborne and payment of any applicable fees. Copyright RH Osborne, 2006. All rights reserved.", "preferredTerm": "Influenza Intensity and Impact Questionnaire Twice Daily Version", "submissionValue": "FLU-IIQ TWICE DAILY", "synonyms": ["FLUIQ2"]}, {"conceptId": "C129109", "definition": "Functional Assessment of Cancer Therapy-Ovarian Symptom Index (FOSI) (These materials discuss and/or include FACIT Measurement System, which is owned exclusively by Dr. David Cella. No part of the FACIT Measurement System may be reproduced, distributed, or transmitted in any form or by any means, including photocopying, recording, or other electronic or mechanical methods, without the prior written permission of Dr. David Cella and payment of any applicable fees. Copyright Dr. David Cella. All rights reserved.)", "preferredTerm": "Functional Assessment of Cancer Therapy-Ovarian Symptom Index Questionnaire", "submissionValue": "FOSI", "synonyms": ["FAC049"]}, {"conceptId": "C100766", "definition": "Faces Pain Scale - Revised (FPS-R) (Hicks CL, von Baeyer CL, van Korlaar I, Goodenough B. Faces Pain Scale-Revised: Toward a Common Metric in Pediatric Pain Measurement. Pain 2001; 93:173-183).", "preferredTerm": "Faces Pain Scale Revised Questionnaire", "submissionValue": "FPSR", "synonyms": ["FPSR1"]}, {"conceptId": "C106621", "definition": "Fatigue Severity Scale (FSS) (Copyright Lauren B. Krupp).", "preferredTerm": "Fatigue Severity Scale", "submissionValue": "FSS", "synonyms": ["FSS01"]}, {"conceptId": "C163813", "definition": "Generalized Anxiety Disorder - 7 Version 2 (GAD-7 V2) (Spitzer RL, Kroenke K, Williams JBW, Lowe B. A brief measure for assessing generalized anxiety disorder: The GAD-7. Arch Intern Med 2006; 166:1092-1097).", "preferredTerm": "Generalized Anxiety Disorder - 7 Version 2 Questionnaire", "submissionValue": "GAD-7 V2", "synonyms": ["GAD02"]}, {"conceptId": "C103519", "definition": "Generalized Anxiety Disorder - 7 (GAD-7) (Spitzer RL, Kroenke K, Williams JBW, Lowe B. A brief measure for assessing generalized anxiety disorder: The GAD-7. Arch Intern Med 2006; 166:1092-1097).", "preferredTerm": "Generalized Anxiety Disorder - 7 Questionnaire", "submissionValue": "GAD-7", "synonyms": ["GAD01"]}, {"conceptId": "C105169", "definition": "The General Clinical Global Impressions (GCGI v1) questions were created by STANDARDS (Standardized Analgesic Database for Research, Discovery, and Submissions) and sponsored by ACTTION (Analgesic Clinical Trial Translations, Innovations, Opportunities, and Networks) www.acttion.org; 2012-08-07 v1.", "preferredTerm": "STANDARDS General Clinical Global Impressions Questionnaire", "submissionValue": "GCGI", "synonyms": ["GCGI01"]}, {"conceptId": "C106698", "definition": "Geriatric Depression Scale Short Form (GDS Short Form) (Sheikh JI, Yesavage JA. Geriatric Depression Scale (GDS): recent evidence and development of a shorter version. Clin Gerontol. 1986 June;5(1/2):165-173).", "preferredTerm": "Geriatric Depression Scale Short Form Questionnaire", "submissionValue": "GDS SHORT FORM", "synonyms": ["GDS02"]}, {"conceptId": "C106697", "definition": "Geriatric Depression Scale (GDS) (Yesavage JA, Brink TL, Rose TL, et al. Development and validation of a geriatric depression screening scale: a preliminary report. J Psychiatry Res. 1983;17(1):37-49).", "preferredTerm": "Geriatric Depression Scale Questionnaire", "submissionValue": "GDS", "synonyms": ["GDS01"]}, {"conceptId": "C163814", "definition": "The Glucose Monitoring System Satisfaction Survey Version: Type 1 Diabetes (GMSS VERSION TYPE 1 DIABETES) (Polonsky WH, Fisher L, Hessler D, Edelman SV. Development of a New Measure for Assessing Glucose Monitoring Device-Related Treatment Satisfaction and Quality of Life. Diabetes Technol Ther 2015; 17(9): 657-663).", "preferredTerm": "The Glucose Monitoring Satisfaction Survey Version: Type 1 Diabetes Questionnaire", "submissionValue": "GMSS VERSION TYPE 1 DIABETES", "synonyms": ["GMSS01"]}, {"conceptId": "C115797", "definition": "Extended Glasgow Outcome Scale (GOSE) (Wilson JT, Pettigrew LE, Teasdale GM. Structured interviews for the Glasgow Outcome Scale and the Extended Glasgow Outcome Scale: Guidelines for their use. Journal of Neurotrauma 1998;15:573-585).", "preferredTerm": "Extended Glasgow Outcome Scale Questionnaire", "submissionValue": "GOSE", "synonyms": ["GOSE1"]}, {"conceptId": "C103520", "definition": "Hospital Anxiety and Depression Scale (HADS) (copyright 1983, 1992, 1994 by R.P. Snaith and A.S. Zigmond. All rights reserved.).", "preferredTerm": "Hospital Anxiety and Depression Scale Questionnaire", "submissionValue": "HADS", "synonyms": ["HADS01"]}, {"conceptId": "C122381", "definition": "Hemophilia Quality of Life Questionnaire Adult Version (Haem-A-QoL) (The Haemo-QoL questionnaire-set is a joint property of the Haemo-QoL Study Centre at the University of Hamburg, Germany and Bayer Biological Products, Research Triangle Park, North Carolina, USA. Development of new translations, modified versions or any other derivatives - such as electronic versions - are not permitted without special permission and involvement of the Haemo-QoL Study Group; Von Mackensen S, Scalone L, Ravera S, Mantovani L, Gringeri A, The COCHE Study Group. Assessment of health-related quality of life in patients with Hemophilia with the newly developed Hemophilia-specific instrument (Haem-A-QoL). Value Health 2005; 8:A127).", "preferredTerm": "Hemophilia Quality of Life Questionnaire Adult Version", "submissionValue": "HAEM-A-QOL", "synonyms": ["HM09"]}, {"conceptId": "C122373", "definition": "Hemophilia Quality of Life (HAEMO-QOL) Questionnaire Children's Long Version Age Group I (The Haemo-QoL questionnaire-set is a joint property of the Haemo-QoL Study Centre at the University of Hamburg, Germany and Bayer Biological Products, Research Triangle Park, North Carolina, USA. Development of new translations, modified versions or any other derivatives - such as electronic versions - are not permitted without special permission and involvement of the Haemo-QoL Study Group).", "preferredTerm": "Hemophilia Quality of Life Questionnaire Children's Long Version Age Group I", "submissionValue": "HAEMO-QOL CHILDREN'S LONG VERSION AGE GROUP I", "synonyms": ["HM01"]}, {"conceptId": "C122374", "definition": "Hemophilia Quality of Life (HAEMO-QOL) Questionnaire Children's Long Version Age Group II (The Haemo-QoL questionnaire-set is a joint property of the Haemo-QoL Study Centre at the University of Hamburg, Germany and Bayer Biological Products, Research Triangle Park, North Carolina, USA. Development of new translations, modified versions or any other derivatives - such as electronic versions - are not permitted without special permission and involvement of the Haemo-QoL Study Group).", "preferredTerm": "Hemophilia Quality of Life Questionnaire Children's Long Version Age Group II", "submissionValue": "HAEMO-QOL CHILDREN'S LONG VERSION AGE GROUP II", "synonyms": ["HM02"]}, {"conceptId": "C122375", "definition": "Hemophilia Quality of Life (HAEMO-QOL) Questionnaire Children's Long Version Age Group III (The Haemo-QoL questionnaire-set is a joint property of the Haemo-QoL Study Centre at the University of Hamburg, Germany and Bayer Biological Products, Research Triangle Park, North Carolina, USA. Development of new translations, modified versions or any other derivatives - such as electronic versions - are not permitted without special permission and involvement of the Haemo-QoL Study Group).", "preferredTerm": "Hemophilia Quality of Life Questionnaire Children's Long Version Age Group III", "submissionValue": "HAEMO-QOL CHILDREN'S LONG VERSION AGE GROUP III", "synonyms": ["HM03"]}, {"conceptId": "C122376", "definition": "Hemophilia Quality of Life (HAEMO-QOL) Questionnaire Children's Short Version Age Group I (The Haemo-QoL questionnaire-set is a joint property of the Haemo-QoL Study Centre at the University of Hamburg, Germany and Bayer Biological Products, Research Triangle Park, North Carolina, USA. Development of new translations, modified versions or any other derivatives - such as electronic versions - are not permitted without special permission and involvement of the Haemo-QoL Study Group).", "preferredTerm": "Hemophilia Quality of Life Questionnaire Children's Short Version Age Group I", "submissionValue": "HAEMO-QOL CHILDREN'S SHORT VERSION AGE GROUP I", "synonyms": ["HM04"]}, {"conceptId": "C122377", "definition": "Hemophilia Quality of Life (HAEMO-QOL) Questionnaire Children's Short Version Age Group II/III (The Haemo-QoL questionnaire-set is a joint property of the Haemo-QoL Study Centre at the University of Hamburg, Germany and Bayer Biological Products, Research Triangle Park, North Carolina, USA. Development of new translations, modified versions or any other derivatives - such as electronic versions - are not permitted without special permission and involvement of the Haemo-QoL Study Group).", "preferredTerm": "Hemophilia Quality of Life Questionnaire Children's Short Version Age Group II/III", "submissionValue": "HAEMO-QOL CHILDREN'S SHORT VERSION AGE GROUP II/III", "synonyms": ["HM05"]}, {"conceptId": "C122378", "definition": "Hemophilia Quality of Life (HAEMO-QOL) Questionnaire Parent's Long Version Age Group I (The Haemo-QoL questionnaire-set is a joint property of the Haemo-QoL Study Centre at the University of Hamburg, Germany and Bayer Biological Products, Research Triangle Park, North Carolina, USA. Development of new translations, modified versions or any other derivatives - such as electronic versions - are not permitted without special permission and involvement of the Haemo-QoL Study Group).", "preferredTerm": "Hemophilia Quality of Life Questionnaire Parent's Long Version Age Group I", "submissionValue": "HAEMO-QOL PARENT'S LONG VERSION AGE GROUP I", "synonyms": ["HM06"]}, {"conceptId": "C122379", "definition": "Hemophilia Quality of Life (HAEMO-QOL) Questionnaire Parent's Long Version Age Group II (The Haemo-QoL questionnaire-set is a joint property of the Haemo-QoL Study Centre at the University of Hamburg, Germany and Bayer Biological Products, Research Triangle Park, North Carolina, USA. Development of new translations, modified versions or any other derivatives - such as electronic versions - are not permitted without special permission and involvement of the Haemo-QoL Study Group).", "preferredTerm": "Hemophilia Quality of Life Questionnaire Parent's Long Version Age Group II", "submissionValue": "HAEMO-QOL PARENT'S LONG VERSION AGE GROUP II", "synonyms": ["HM07"]}, {"conceptId": "C122380", "definition": "Hemophilia Quality of Life (HAEMO-QOL) Questionnaire Parent's Long Version Age Group III (The Haemo-QoL questionnaire-set is a joint property of the Haemo-QoL Study Centre at the University of Hamburg, Germany and Bayer Biological Products, Research Triangle Park, North Carolina, USA. Development of new translations, modified versions or any other derivatives - such as electronic versions - are not permitted without special permission and involvement of the Haemo-QoL Study Group).", "preferredTerm": "Hemophilia Quality of Life Questionnaire Parent's Long Version Age Group III", "submissionValue": "HAEMO-QOL PARENT'S LONG VERSION AGE GROUP III", "synonyms": ["HM08"]}, {"conceptId": "C130314", "definition": "The Hamilton Depression Rating Scale 6 Self-Report Version (HAM-D6 - Self-Report Version) (Clinical Research: Rating scales in depression: limitations and pitfalls; Per Bech, MD; Copyright 2006 LLS SAS. All rights reserved).", "preferredTerm": "Hamilton Depression Rating Scale 6 Self-Report Version Questionnaire", "submissionValue": "HAMD 6 SELF-REPORT VERSION", "synonyms": ["HAMDS1"]}, {"conceptId": "C106699", "definition": "Health Assessment Questionnaire Disability Index With Pain Visual Analog Scale (HAQ-DI WITH VAS) (Fries JF. The assessment of disability: from first to future principles. Br J Rheumatol. 1983 Aug; 22(3 Suppl):48-58).", "preferredTerm": "Health Assessment Questionnaire Disability Index With Pain Visual Analog Scale Questionnaire", "submissionValue": "HAQ-DI WITH VAS", "synonyms": ["HAQ01"]}, {"conceptId": "C132534", "definition": "Health Assessment Questionnaire Disability Index Without Pain Visual Analog Scale (HAQ-DI WITHOUT VAS) (Copyright 2003 Fries JF. Bruce B, Fries JF. The Stanford Health Assessment Questionnaire: Dimensions and Practical Applications. Health and Quality of Life Outcomes 2003. 9 June 2003; 1:20 1-6).", "preferredTerm": "Health Assessment Questionnaire Disability Index Without Pain Visual Analog Scale", "submissionValue": "HAQ-DI WITHOUT VAS", "synonyms": ["HAQ02"]}, {"conceptId": "C163815", "definition": "Hypoglycemic Confidence Scale (HCS) (Polonsky WH, Fisher L, Hessler D, Edelman SV. Investigating Hypoglycemic Confidence in Type 1 and Type 2 Diabetes. Diabetes Technol Ther 2017; 19(2): 131-6).", "preferredTerm": "Hypoglycemic Confidence Scale Questionnaire", "submissionValue": "HCS", "synonyms": ["HCS01"]}, {"conceptId": "C174070", "definition": "Quality of Life in Inflammatory Bowel Disease Questionnaire (IBDQ) (Copyright 1989, McMaster University, Hamilton, Ontario, Canada. The Inflammatory Bowel Disease Questionnaire, authored by Dr. Jan Irvine et. al., was made under license from McMaster University, Hamilton, Canada (Copyright 1989, McMaster University). The IBDQ is provided under license from McMaster University and may not be copied, distributed or used in any way without the prior written consent of McMaster University. Contact the McMaster Industry Liaison Office at: milo at mcmaster.ca for licensing details).", "preferredTerm": "Quality of Life in Inflammatory Bowel Disease Questionnaire", "submissionValue": "IBDQ", "synonyms": ["IBDQ01"]}, {"conceptId": "C130315", "definition": "Inventory of Depressive Symptomatology - Self-Report (IDS-SR) (Copyright UT Southwestern Medical Center at Dallas. Rush, A.J., Carmody, T. and Reimitz, P.E. The Inventory of Depressive Symptomatology (IDS): Clinician (IDS-C) and self-report (IDS-SR) ratings of depressive symptoms. International Journal of Methods in Psychiatric Research, 9:45-59, 2000).", "preferredTerm": "Inventory of Depressive Symptomatology Self-Report Version Questionnaire", "submissionValue": "IDS-SR", "synonyms": ["IDSR1"]}, {"conceptId": "C103521", "definition": "International Index of Erectile Function (IIEF) (Rosen RC, Riley A, Wagner G, Osterloh IH, Kirkpatrick J, and Mishra A. The international index of erectile function (IIEF): a multidimensional scale for assessment of erectile dysfunction. Urology. 1997 49(6): 822-830).", "preferredTerm": "International Index of Erectile Function Questionnaire", "submissionValue": "IIEF", "synonyms": ["IIEF01"]}, {"conceptId": "C141692", "definition": "International Physical Activity Questionnaire (November 2002) Long Last 7 Days Telephone Format (IPAQ-LF PHONE VERSION)(Booth, M.L. (2000). Assessment of Physical Activity: An International Perspective. Research Quarterly for Exercise and Sport, 71 (2): s114-20. Retrieved from the International Physical Activity Questionnaire website: http://www.ipaq.ki.se).", "preferredTerm": "International Physical Activity Questionnaire (November 2002) Long Last 7 Days Telephone Format", "submissionValue": "IPAQ-LF PHONE VERSION", "synonyms": ["IPAQ02"]}, {"conceptId": "C141691", "definition": "International Physical Activity Questionnaire (October 2002) Long Last 7 Days Self-Administered Format (IPAQ-LF SELF-ADMINISTERED VERSION) (Booth, M.L. (2000). Assessment of Physical Activity: An International Perspective. Research Quarterly for Exercise and Sport, 71 (2): s114-20. Retrieved from the International Physical Activity Questionnaire website: http://www.ipaq.ki.se).", "preferredTerm": "International Physical Activity Questionnaire (August 2002) Long Last 7 Days Self-Administered Format", "submissionValue": "IPAQ-LF SELF-ADMINISTERED VERSION", "synonyms": ["IPAQ03"]}, {"conceptId": "C141693", "definition": "International Physical Activity Questionnaire (August 2002) Short Last 7 Days Telephone Format (IPAQ-SF PHONE VERSION)(Booth, M.L. (2000). Assessment of Physical Activity: An International Perspective. Research Quarterly for Exercise and Sport, 71 (2): s114-20. Retrieved from the International Physical Activity Questionnaire website: http://www.ipaq.ki.se).", "preferredTerm": "International Physical Activity Questionnaire (August 2002) Short Last 7 Days Telephone Format", "submissionValue": "IPAQ-SF PHONE VERSION", "synonyms": ["IPAQ01"]}, {"conceptId": "C141690", "definition": "International Physical Activity Questionnaire (August 2002) Short Last 7 Days Self-Administered Format (IPAQ-SF SELF-ADMINISTERED VERSION)(Booth, M.L. (2000). Assessment of Physical Activity: An International Perspective. Research Quarterly for Exercise and Sport, 71 (2): s114-20. Retrieved from the International Physical Activity Questionnaire website: http://www.ipaq.ki.se).", "preferredTerm": "International Physical Activity Questionnaire (August 2002) Short Last 7 Days Self-Administered Format", "submissionValue": "IPAQ-SF SELF-ADMINISTERED VERSION", "synonyms": ["IPAQ04"]}, {"conceptId": "C113446", "definition": "International Prostate Symptom Score (IPSS) (Barry MJ, et al. The American Urological Association symptom index for benign prostatic hyperplasia. The Measurement Committee of the American Urological Association. J Urol 1992; 148: 1549-1557). CDISC believes this instrument to be in the public domain, but you should perform your own assessment.", "preferredTerm": "International Prostate Symptom Score", "submissionValue": "IPSS", "synonyms": ["I-PSS", "IPS01"]}, {"conceptId": "C113876", "definition": "Impact of Visual Impairment Scale (IVIS) (1997 by the National Multiple Sclerosis Society. All rights reserved).", "preferredTerm": "Impact of Visual Impairment Scale Questionnaire", "submissionValue": "IVIS", "synonyms": ["IVIS01"]}, {"conceptId": "C187515", "definition": "Lung Cancer Symptom Scale (LCSS) (Hollen PJ, Gralla RJ, Kris MG, Potanovich LM. Quality of life assessment in individuals with lung cancer: testing the Lung Cancer Symptom Scale (LCSS). Eur J Cancer. 1993;29A Suppl 1:S51-8. U.S. Copyright 1995, Reproduced by permission of Quality of Life Research Associates, LLC). No part of the Lung Cancer Symptom Scale may be reproduced, distributed, or transmitted in any form or by any means, including photocopying, recording, or other electronic or mechanical methods, without the prior written permission of the Quality of Life Research Associates, LLC and payment of any applicable fees. Copyright Quality of Life Research Associates, LLC 1995. All rights reserved.", "preferredTerm": "Lung Cancer Symptom Scale Questionnaire", "submissionValue": "LCSS", "synonyms": ["LCSS1"]}, {"conceptId": "C135740", "definition": "Life Events Checklist for DSM-5, Standard Version (LEC-5 STANDARD VERSION) (Weathers, F.W., Blake, D.D., Schnurr, P.P., Kaloupek, D.G., Marx, B.P., & Keane, T.M. (2013). The Life Events Checklist for DSM-5 (LEC-5). Retrieved from the National Center for PTSD website: http://www.ptsd.va.gov).", "preferredTerm": "Life Events Checklist for DSM-5 Standard Version Questionnaire", "submissionValue": "LEC-5 STANDARD VERSION", "synonyms": ["LEC01"]}, {"conceptId": "C122382", "definition": "Montgomery-Asberg Depression Rating Scale (MADRS) (Copyright Stuart Montgomery 1978, Measures of Depression, Fulcrum Press, London. Stuart A. Montgomery and Marie Asberg. A new depression scale designed to be sensitive to change. Br. J. Psychiat. (1979), 134:382-389).", "preferredTerm": "Montgomery-Asberg Depression Rating Scale Questionnaire", "submissionValue": "MADRS", "synonyms": ["MADRS1"]}, {"conceptId": "C123660", "definition": "Menstrual Distress Questionnaire Form-T (Today) (MDQ-T) (Copyright 1968, 1989, 1991, 2000, 2010 by Rudolf H. Moos. All Rights Reserved. Published by Mind Garden, Inc. Moos RH. The development of a menstrual distress questionnaire. Psychosom Med. 1968 Nov-Dec;30(6):853-67).", "preferredTerm": "Menstrual Distress Questionnaire Form-T (Today)", "submissionValue": "MDQ-T", "synonyms": ["MDQ01"]}, {"conceptId": "C100769", "definition": "The Movement Disorder Society version of the Unified Parkinson's Disease Rating Scale (MDS-UPDRS) (copyright 2008 Movement Disorder Society. All Rights Reserved).", "preferredTerm": "Movement Disorder Society Unified Parkinson's Disease Rating Scale Questionnaire", "submissionValue": "MDS-UPDRS", "synonyms": ["UPD2"]}, {"conceptId": "C113877", "definition": "Modified Fatigue Impact Scale (MFIS) (1997 by the National Multiple Sclerosis Society. All rights reserved).", "preferredTerm": "Modified Fatigue Impact Scale Questionnaire", "submissionValue": "MFIS", "synonyms": ["MFIS01"]}, {"conceptId": "C112523", "definition": "Modified Hachinski Ischemic Scale-NACC Version (MHIS-NACC) Reproduced with permission. Copyright 2011 University of Washington. Created and published by the ADC Clinical Task Force (John C. Morris, MD, Chair) and the National Alzheimer's Coordinating Center (Walter A. Kukull, PhD, Director). This publication was funded by the National Institutes of Health through the National Institute on Aging (Cooperative Agreement U01 AG016976).", "preferredTerm": "Modified Hachinski Ischemic Scale-NACC Version Questionnaire", "submissionValue": "MHIS-NACC", "synonyms": ["MHIS01"]}, {"conceptId": "C106700", "definition": "Modified Medical Research Council dyspnea scale (MMRC) (Mahler DA, Wells CK. Evaluation of Clinical Methods for Rating Dyspnea. Chest 1988; 93:580-586).", "preferredTerm": "Modified Medical Research Council Dyspnea Scale Questionnaire", "submissionValue": "MMRC", "synonyms": ["MMRC01"]}, {"conceptId": "C100771", "definition": "Michigan Neuropathy Screening Instrument (MNSI) (copyright University of Michigan, 2000, All rights reserved).", "preferredTerm": "Michigan Neuropathy Screening Instrument Questionnaire", "submissionValue": "MNSI", "synonyms": ["MNSI1"]}, {"conceptId": "C115798", "definition": "The Mayo-Portland Adaptability Inventory-4 (MPAI-4) (Malec, J. (2005). The Mayo-Portland Adaptability Inventory-4. The Center for Outcome Measurement in Brain Injury. http://www.tbims.org/combi/mpai).", "preferredTerm": "Mayo-Portland Adaptability Inventory-4 Questionnaire", "submissionValue": "MPAI-4", "synonyms": ["MPAI1"]}, {"conceptId": "C111383", "definition": "Modified Rankin Scale (MRS) (Van Swieten J., Koudstaal P., Visser M., Schouten H., and Van Gijn J. Interobserver agreement for the assessment of handicap in stroke patients, 1988. Stroke 19: 604-607).", "preferredTerm": "Modified Rankin Scale Questionnaire", "submissionValue": "MRS", "synonyms": ["MRS01"]}, {"conceptId": "C123664", "definition": "Multiple Sclerosis Impact Scale version 1 (MSIS-29v1) (Copyright 2000 Neurological Outcome Measures Unit, Institute of Neurology, University College London, UK).", "preferredTerm": "Multiple Sclerosis Impact Scale Version 1 Questionnaire", "submissionValue": "MSIS-29 V1", "synonyms": ["MSIS01"]}, {"conceptId": "C123665", "definition": "Multiple Sclerosis Impact Scale version 2 (MSIS-29v2) (Copyright 2005 Neurological Outcome Measures Unit, Peninsula Medical School, Plymouth, UK).", "preferredTerm": "Multiple Sclerosis Impact Scale Version 2 Questionnaire", "submissionValue": "MSIS-29 V2", "synonyms": ["MSIS02"]}, {"conceptId": "C113878", "definition": "Multiple Sclerosis Quality of Life-54 Instrument (MSQOL-54) (Copyright 1995, University of California, Los Angeles).", "preferredTerm": "Multiple Sclerosis Quality of Life-54 Instrument Questionnaire", "submissionValue": "MSQOL-54", "synonyms": ["MSQL1"]}, {"conceptId": "C123663", "definition": "12-Item Multiple Sclerosis Walking Scale (MSWS-12) (Copyright 2000 Neurological Outcome Measures Unit).", "preferredTerm": "12-Item Multiple Sclerosis Walking Scale Questionnaire", "submissionValue": "MSWS-12", "synonyms": ["MSWS01"]}, {"conceptId": "C129107", "definition": "National Comprehensive Cancer Network/Functional Assessment of Cancer Therapy-Bladder Symptom Index-18 Version 2 (NCCN-FACT FBlSI-18 V2) (Copyright 2001 David Cella, Ph.D. All Rights Reserved;Questionnaires and all related subscales, translations, and adaptations ('FACIT System') are owned and copyrighted by David Cella, Ph.D. The ownership and copyright of the FACIT System resides strictly with Dr. Cella. Dr. Cella has granted FACIT.org the right to license usage of the FACIT System to other parties).", "preferredTerm": "National Comprehensive Cancer Network/Functional Assessment of Cancer Therapy-Bladder Symptom Index-18 Version 2 Questionnaire", "submissionValue": "NCCN-FACT FBLSI-18 V2", "synonyms": ["FAC028"]}, {"conceptId": "C150918", "definition": "National Comprehensive Cancer Network/Functional Assessment of Cancer Therapy-Brain Symptom Index-24 Version 2 (NCCN-FACT FBRSI-24 V2) (Copyright 1987, 1997 David Cella, Ph.D. All Rights Reserved; Questionnaires and all related subscales, translations, and adaptations ('FACIT System') are owned and copyrighted by David Cella, Ph.D. The ownership and copyright of the FACIT System resides strictly with Dr. Cella. Dr. Cella has granted FACIT.org the right to license usage of the FACIT System to other parties).", "preferredTerm": "National Comprehensive Cancer Network/Functional Assessment of Cancer Therapy-Brain Symptom Index-24 Version 2 Questionnaire", "submissionValue": "NCCN-FACT FBRSI-24 V2", "synonyms": ["FAC030"]}, {"conceptId": "C150919", "definition": "National Comprehensive Cancer Network/Functional Assessment of Cancer Therapy-Head & Neck Symptom Index-22 Version 2 (NCCN-FACT FHNSI-22 V2) (Copyright 1987, 1997 David Cella, Ph.D. All Rights Reserved; Questionnaires and all related subscales, translations, and adaptations ('FACIT System') are owned and copyrighted by David Cella, Ph.D. The ownership and copyright of the FACIT System resides strictly with Dr. Cella. Dr. Cella has granted FACIT.org the right to license usage of the FACIT System to other parties).", "preferredTerm": "National Comprehensive Cancer Network/Functional Assessment of Cancer Therapy-Head & Neck Symptom Index-22 Version 2 Questionnaire", "submissionValue": "NCCN-FACT FHNSI-22 V2", "synonyms": ["FAC036"]}, {"conceptId": "C129106", "definition": "National Comprehensive Cancer Network/Functional Assessment of Cancer Therapy-Kidney Symptom Index-19 Version 2 (NCCN-FACT FKSI-19 V2) (Copyright 2001 David Cella, Ph.D. All Rights Reserved;Questionnaires and all related subscales, translations, and adaptations ('FACIT System') are owned and copyrighted by David Cella, Ph.D. The ownership and copyright of the FACIT System resides strictly with Dr. Cella. Dr. Cella has granted FACIT.org the right to license usage of the FACIT System to other parties).", "preferredTerm": "National Comprehensive Cancer Network/Functional Assessment of Cancer Therapy-Kidney Symptom Index-19 Version 2 Questionnaire", "submissionValue": "NCCN-FACT FKSI-19 V2", "synonyms": ["FAC042"]}, {"conceptId": "C129110", "definition": "National Comprehensive Cancer Network/Functional Assessment of Cancer Therapy-Ovarian Symptom Index-18 Version 2 (NCCN-FACT FOSI-18 V2) (Copyright 1987, 1997 David Cella, Ph.D. All Rights Reserved; Questionnaires and all related subscales, translations, and adaptations ('FACIT System') are owned and copyrighted by David Cella, Ph.D. The ownership and copyright of the FACIT System resides strictly with Dr. Cella. Dr. Cella has granted FACIT.org the right to license usage of the FACIT System to other parties).", "preferredTerm": "National Comprehensive Cancer Network/Functional Assessment of Cancer Therapy-Ovarian Symptom Index-18 Version 2 Questionnaire", "submissionValue": "NCCN-FACT FOSI-18 V2", "synonyms": ["FAC050"]}, {"conceptId": "C127370", "definition": "National Comprehensive Cancer Network/Functional Assessment of Cancer Therapy-Prostate Symptom Index 17 Version 2 (NCCN-FACT-FPSI 17 V2) (Copyright 2001 David Cella, Ph.D. All Rights Reserved; Questionnaires and all related subscales, translations, and adaptations ('FACIT System') are owned and copyrighted by David Cella, Ph.D. The ownership and copyright of the FACIT System resides strictly with Dr. Cella. Dr. Cella has granted FACIT.org the right to license usage of the FACIT System to other parties).", "preferredTerm": "National Comprehensive Cancer Network/Functional Assessment of Cancer Therapy-Prostate Symptom Index 17 Version 2 Questionnaire", "submissionValue": "NCCN-FACT FPSI-17 V2", "synonyms": ["FAC052"]}, {"conceptId": "C100772", "definition": "Neuropsychiatric Inventory (NPI) (copyright JL Cummings, 1994, all rights reserved; permission for commercial use required; npiTEST.net). No part of the NPI may be reproduced, distributed, or transmitted in any form or by any means, including photocopying, recording, or other electronic or mechanical methods, without the prior written permission of the JL Cummings and payment of any applicable fees. Copyright JL Cummings, 1994, all rights reserved.", "preferredTerm": "Neuropsychiatric Inventory - 12 Item Version Questionnaire", "submissionValue": "NPI", "synonyms": ["NPI-12", "NPI1"]}, {"conceptId": "C103522", "definition": "Neuropathic Pain Scale (NPS) (copyright Brad Galer and Mark Jensen. All rights reserved.).", "preferredTerm": "Neuropathic Pain Scale Questionnaire", "submissionValue": "NPS", "synonyms": ["NPS01"]}, {"conceptId": "C155327", "definition": "Non-Small Cell Lung Cancer Symptom Assessment Questionnaire v1.0 (NSCLC-SAQ V1.0) (Version 1.0 Copyright 2015 Critical Path Institute. All Rights Reserved. McCarrier KP, Atkinson TM, DeBusk KP, Liepa AM, Scanlon M, Coons SJ and on behalf of the Patient-Reported Outcome Consortium. Qualitative Development and Content Validity of the Non-small Cell Lung Cancer Symptom Assessment Questionnaire (NSCLC-SAQ), A Patient-reported Outcome Instrument. Clinical Therapeutics 2016; 38(4):794-810. Patient-Reported Outcome (PRO) Consortium - Non-Small Cell Lung Cancer Symptom Assessment Questionnaire (NSCLC-SAQ) Provisional User Manual, Version 6: March 24, 2017). No part of the NSCLC-SAQ V1.0 may be reproduced, distributed, or transmitted in any form or by any means, including photocopying, recording, or other electronic or mechanical methods, without the prior written permission of the Critical Path Institute and payment of any applicable fees. Copyright Critical Path Institute, 2018. All rights reserved).", "preferredTerm": "Non-Small Cell Lung Cancer Symptom Assessment Questionnaire v1.0", "submissionValue": "NSCLC-SAQ V1.0", "synonyms": ["NSCLC1"]}, {"conceptId": "C103524", "definition": "The Overactive Bladder Questionnaire Short Form (OAB-q Short Form) (Karin S. Coyne, Christine L. Thompson, Jin-Shei Lai, and Chris C. Sexton. An Overactive Bladder Symptom and Health-Related Quality of Life Short-Form: Validation of the OAB-q SF. Neurourology and Urodynamics 34:255-263, 2015).", "preferredTerm": "The Overactive Bladder Questionnaire Short Form", "submissionValue": "OAB-Q SHORT FORM", "synonyms": ["OABQ02"]}, {"conceptId": "C103523", "definition": "The Overactive Bladder Questionnaire (OAB-q) (Coyne K, Revicki D, Hunt T, et al. Psychometric validation of an overactive bladder symptom and health-related quality of life questionnaire: the OAB-q. Qual Life Res. Sep 2002; 11(6):563-574).", "preferredTerm": "The Overactive Bladder Questionnaire", "submissionValue": "OAB-Q", "synonyms": ["OABQ01"]}, {"conceptId": "C119095", "definition": "Ocular Comfort Index (OCI) (The copyright owner of the Ocular Comfort Index is Dr. Michael Edward Johnson. Michael E. Johnson and Paul J. Murphy. Measurement of Ocular Surface Irritation on a Linear Interval Scale with the Ocular Comfort Index. Investigative Ophthalmology and Visual Science, October 2007, Vol. 48, No.10).", "preferredTerm": "Ocular Comfort Index Questionnaire", "submissionValue": "OCI", "synonyms": ["OCI01"]}, {"conceptId": "C103525", "definition": "The Oswestry Disability Index Version 2.1a (ODI v2.1A) (copyright 1980 Jeremy Fairbank. All Rights Reserved.).", "preferredTerm": "The Oswestry Disability Index Version 2.1a Questionnaire", "submissionValue": "ODI V2.1A", "synonyms": ["ODI01"]}, {"conceptId": "C163816", "definition": "Diabetes Distress Scale for Parents of Teens with Type 1 Diabetes (PARENT-DDS) (Hessler D, Fisher L, Polonsky W, Johnson N. Understanding the Areas and Correlates of Diabetes-Related Distress in Parent of Teens With Type 1 Diabetes. Journal of Pediatric Psychology 2016; 41(7): 750-758).", "preferredTerm": "Diabetes Distress Scale for Parents of Teens with Type 1 Diabetes Questionnaire", "submissionValue": "PARENT-DDS", "synonyms": ["DDS02"]}, {"conceptId": "C163817", "definition": "Diabetes Distress Scale for Partners of Adults with Type 1 Diabetes (PARTNER-DDS) (Polonsky WH, Fisher L, Hessler D, Johnson N. Emotional Distress in the Partners of Type 1 Diabetes Adults: Worries About Hypoglycemia and Other Key Concerns. Diabetes Technology & Therapeutics May 2016; 18(5): 292-297).", "preferredTerm": "Diabetes Distress Scale for Partners of Adults with Type 1 Diabetes Questionnaire", "submissionValue": "PARTNER-DDS", "synonyms": ["DDS03"]}, {"conceptId": "C135741", "definition": "The PTSD Checklist for DSM-5 (PCL-5) (Weathers, F.W., Litz, B. T., Keane, T. M., Palmieri, P. A., Marx, B. P., & Schnurr, P. P. (2013). The PTSD Checklist for DSM-5 (PCL-5). Retrieved from the National Center for PTSD website: http://www.ptsd.va.gov).", "preferredTerm": "The PTSD Checklist for DSM-5 Questionnaire", "submissionValue": "PCL-5", "synonyms": ["PCL01"]}, {"conceptId": "C112524", "definition": "Patient Determined Disease Steps (PDDS) (Hohol MJ, Orav EJ, Weiner HL. Disease Steps in multiple sclerosis: A simple approach to evaluate disease progression. Neurology 1995; 45: 251-55). (Hohol MJ, Orav EJ, Weiner HL. Disease Steps in multiple sclerosis: a longitudinal study comparing disease steps and EDSS to evaluate disease progression. Multiple Sclerosis 1999; 5: 349-54). (Marrie RA and Goldman M. Validity of performance scales for disability assessment in multiple sclerosis. Multiple Sclerosis 2007; 13: 1176-1182). (The PDDS and/or PS are provided for use by the NARCOMS Registry: www.narcoms.org/pdds. NARCOMS is supported in part by the Consortium of Multiple Sclerosis Centers (CMSC) and the CMSC Foundation).", "preferredTerm": "Patient Determined Disease Steps Questionnaire", "submissionValue": "PDDS", "synonyms": ["PDDS01"]}, {"conceptId": "C187514", "definition": "Parkinson's Disease Questionnaire-39 (PDQ-39) (Peto V, Jenkinson C, Fitzpatrick R, Greenhall R. The development and validation of a short measure of functioning and well being for individuals with Parkinson's disease. Qual Life Res. 1995 Jun;4(3):241-8. PDQ-39 copyright Oxford University Innovation Limited 1993. All Rights Reserved. The authors, being Professor Crispin Jenkinson, Professor Ray Fitzpatrick and Ms. Viv Peto, have asserted their moral rights). No part of the Parkinson's Disease Questionnaire-39 may be reproduced, distributed, or transmitted in any form or by any means, including photocopying, recording, or other electronic or mechanical methods, without the prior written permission of the Oxford University Innovation Limited and payment of any applicable fees. Copyright Oxford University Innovation Limited 1993. All Rights Reserved.", "preferredTerm": "Parkinson's Disease Questionnaire-39", "submissionValue": "PDQ-39", "synonyms": ["PD01"]}, {"conceptId": "C100773", "definition": "Parkinson's Disease Quality of Life Scale (PDQUALIF) (Welsh M, McDermott MP, Holloway RG, Plumb S, Pfeiffer R, Hubble J, and The Parkinson Study Group. Development and Testing of the Parkinson's Disease Quality of Life Scale. Movement Disorders, 2003, Vol. 18; 637-645).", "preferredTerm": "Parkinson's Disease Quality of Life Scale Questionnaire", "submissionValue": "PDQUALIF", "synonyms": ["PDQ01"]}, {"conceptId": "C147586", "definition": "Pediatric Functional Assessment of Chronic Illness Therapy-Fatigue (PEDS-FACIT-F) (Copyright 1987, 1997 David Cella, Ph.D. All Rights Reserved; Questionnaires and all related subscales, translations, and adaptations ('FACIT System') are owned and copyrighted by David Cella, Ph.D. The ownership and copyright of the FACIT System resides strictly with Dr. Cella. Dr. Cella has granted FACIT.org the right to license usage of the FACIT System to other parties).", "preferredTerm": "Pediatric Functional Assessment of Chronic Illness Therapy-Fatigue Questionnaire", "submissionValue": "PEDS-FACIT-F", "synonyms": ["FAC099"]}, {"conceptId": "C138341", "definition": "Pediatric Quality of Life (PedsQL) Neuromuscular Module Acute Version 3 Child Parent Report (Copyright 1998 JW Varni, Ph.D. Iannaccone, S.T., Hynan, L.S., Morton, A., Buchanan, R., Limbers, C.A., Varni, J.W., the AmSMART Group (2009). The PedsQL in pediatric patients with Spinal Muscular Atrophy: Feasibility, reliability, and validity of the Pediatric Quality of Life Inventory Generic Core Scales and Neuromuscular Module. Neuromuscular Disorders, 19, 805-812. Davis, S.E., Hynan, L.S., Limbers, C.A., Andersen, C.M., Greene, M.C., Varni, J.W., Iannaccone, S.T. (2010). The PedsQL in pediatric patients with Duchenne Muscular Dystrophy: Feasibility, reliability, and validity of the Pediatric Quality of Life Inventory Neuromuscular Module and Generic Core Scales. Journal of Clinical Neuromuscular Disease, 11, 97-109).", "preferredTerm": "Pediatric Quality of Life Neuromuscular Module Acute Version 3.0 Parent Report for Child Questionnaire", "submissionValue": "PEDSQL NEUROMUSCULAR MODULE ACUTE V3 CHILD PARENT REPORT", "synonyms": ["PQL15"]}, {"conceptId": "C138339", "definition": "Pediatric Quality of Life (PedsQL) Neuromuscular Module Acute Version 3 Child (Copyright 1998 JW Varni, Ph.D. Iannaccone, S.T., Hynan, L.S., Morton, A., Buchanan, R., Limbers, C.A., Varni, J.W., the AmSMART Group (2009). The PedsQL in pediatric patients with Spinal Muscular Atrophy: Feasibility, reliability, and validity of the Pediatric Quality of Life Inventory Generic Core Scales and Neuromuscular Module. Neuromuscular Disorders, 19, 805-812. Davis, S.E., Hynan, L.S., Limbers, C.A., Andersen, C.M., Greene, M.C., Varni, J.W., Iannaccone, S.T. (2010). The PedsQL in pediatric patients with Duchenne Muscular Dystrophy: Feasibility, reliability, and validity of the Pediatric Quality of Life Inventory Neuromuscular Module and Generic Core Scales. Journal of Clinical Neuromuscular Disease, 11, 97-109).", "preferredTerm": "Pediatric Quality of Life Neuromuscular Module Acute Version 3.0 Child Report Questionnaire", "submissionValue": "PEDSQL NEUROMUSCULAR MODULE ACUTE V3 CHILD", "synonyms": ["PQL14"]}, {"conceptId": "C138342", "definition": "Pediatric Quality of Life (PedsQL) Neuromuscular Module Acute Version 3 Teen Parent Report (Copyright 1998 JW Varni, Ph.D. Iannaccone, S.T., Hynan, L.S., Morton, A., Buchanan, R., Limbers, C.A., Varni, J.W., the AmSMART Group (2009). The PedsQL in pediatric patients with Spinal Muscular Atrophy: Feasibility, reliability, and validity of the Pediatric Quality of Life Inventory Generic Core Scales and Neuromuscular Module. Neuromuscular Disorders, 19, 805-812. Davis, S.E., Hynan, L.S., Limbers, C.A., Andersen, C.M., Greene, M.C., Varni, J.W., Iannaccone, S.T. (2010). The PedsQL in pediatric patients with Duchenne Muscular Dystrophy: Feasibility, reliability, and validity of the Pediatric Quality of Life Inventory Neuromuscular Module and Generic Core Scales. Journal of Clinical Neuromuscular Disease, 11, 97-109).", "preferredTerm": "Pediatric Quality of Life Neuromuscular Module Acute Version 3.0 Parent Report for Teen Questionnaire", "submissionValue": "PEDSQL NEUROMUSCULAR MODULE ACUTE V3 TEEN PARENT REPORT", "synonyms": ["PQL13"]}, {"conceptId": "C138345", "definition": "Pediatric Quality of Life (PedsQL) Neuromuscular Module Acute Version 3 Teen (Copyright 1998 JW Varni, Ph.D. Iannaccone, S.T., Hynan, L.S., Morton, A., Buchanan, R., Limbers, C.A., Varni, J.W., the AmSMART Group (2009). The PedsQL in pediatric patients with Spinal Muscular Atrophy: Feasibility, reliability, and validity of the Pediatric Quality of Life Inventory Generic Core Scales and Neuromuscular Module. Neuromuscular Disorders, 19, 805-812. Davis, S.E., Hynan, L.S., Limbers, C.A., Andersen, C.M., Greene, M.C., Varni, J.W., Iannaccone, S.T. (2010). The PedsQL in pediatric patients with Duchenne Muscular Dystrophy: Feasibility, reliability, and validity of the Pediatric Quality of Life Inventory Neuromuscular Module and Generic Core Scales. Journal of Clinical Neuromuscular Disease, 11, 97-109).", "preferredTerm": "Pediatric Quality of Life Neuromuscular Module Acute Version 3.0 Teen Report Questionnaire", "submissionValue": "PEDSQL NEUROMUSCULAR MODULE ACUTE V3 TEEN", "synonyms": ["PQL12"]}, {"conceptId": "C138340", "definition": "Pediatric Quality of Life (PedsQL) Neuromuscular Module Acute Version 3 Toddler Parent Report (Copyright 1998 JW Varni, Ph.D. Iannaccone, S.T., Hynan, L.S., Morton, A., Buchanan, R., Limbers, C.A., Varni, J.W., the AmSMART Group (2009). The PedsQL in pediatric patients with Spinal Muscular Atrophy: Feasibility, reliability, and validity of the Pediatric Quality of Life Inventory Generic Core Scales and Neuromuscular Module. Neuromuscular Disorders, 19, 805-812. Davis, S.E., Hynan, L.S., Limbers, C.A., Andersen, C.M., Greene, M.C., Varni, J.W., Iannaccone, S.T. (2010). The PedsQL in pediatric patients with Duchenne Muscular Dystrophy: Feasibility, reliability, and validity of the Pediatric Quality of Life Inventory Neuromuscular Module and Generic Core Scales. Journal of Clinical Neuromuscular Disease, 11, 97-109).", "preferredTerm": "Pediatric Quality of Life Neuromuscular Module Acute Version 3.0 Parent of Toddler Questionnaire", "submissionValue": "PEDSQL NEUROMUSCULAR MODULE ACUTE V3 TODDLER PARENT REPORT", "synonyms": ["PQL18"]}, {"conceptId": "C138343", "definition": "Pediatric Quality of Life (PedsQL) Neuromuscular Module Acute Version 3 Young Adult Parent Report (Copyright 1998 JW Varni, Ph.D. Iannaccone, S.T., Hynan, L.S., Morton, A., Buchanan, R., Limbers, C.A., Varni, J.W., the AmSMART Group (2009). The PedsQL in pediatric patients with Spinal Muscular Atrophy: Feasibility, reliability, and validity of the Pediatric Quality of Life Inventory Generic Core Scales and Neuromuscular Module. Neuromuscular Disorders, 19, 805-812. Davis, S.E., Hynan, L.S., Limbers, C.A., Andersen, C.M., Greene, M.C., Varni, J.W., Iannaccone, S.T. (2010). The PedsQL in pediatric patients with Duchenne Muscular Dystrophy: Feasibility, reliability, and validity of the Pediatric Quality of Life Inventory Neuromuscular Module and Generic Core Scales. Journal of Clinical Neuromuscular Disease, 11, 97-109).", "preferredTerm": "Pediatric Quality of Life Neuromuscular Module Acute Version 3.0 Parent Report for Young Adults Questionnaire", "submissionValue": "PEDSQL NEUROMUSCULAR MODULE ACUTE V3 YOUNG ADULT PARENT REPORT", "synonyms": ["PQL11"]}, {"conceptId": "C138346", "definition": "Pediatric Quality of Life (PedsQL) Neuromuscular Module Acute Version 3 Young Adult (Copyright 1998 JW Varni, Ph.D. Iannaccone, S.T., Hynan, L.S., Morton, A., Buchanan, R., Limbers, C.A., Varni, J.W., the AmSMART Group (2009). The PedsQL in pediatric patients with Spinal Muscular Atrophy: Feasibility, reliability, and validity of the Pediatric Quality of Life Inventory Generic Core Scales and Neuromuscular Module. Neuromuscular Disorders, 19, 805-812. Davis, S.E., Hynan, L.S., Limbers, C.A., Andersen, C.M., Greene, M.C., Varni, J.W., Iannaccone, S.T. (2010). The PedsQL in pediatric patients with Duchenne Muscular Dystrophy: Feasibility, reliability, and validity of the Pediatric Quality of Life Inventory Neuromuscular Module and Generic Core Scales. Journal of Clinical Neuromuscular Disease, 11, 97-109).", "preferredTerm": "Pediatric Quality of Life Neuromuscular Module Acute Version 3.0 Young Adult Report Questionnaire", "submissionValue": "PEDSQL NEUROMUSCULAR MODULE ACUTE V3 YOUNG ADULT", "synonyms": ["PQL10"]}, {"conceptId": "C138344", "definition": "Pediatric Quality of Life (PedsQL) Neuromuscular Module Acute Version 3 Young Child Parent Report (Copyright 1998 JW Varni, Ph.D. Iannaccone, S.T., Hynan, L.S., Morton, A., Buchanan, R., Limbers, C.A., Varni, J.W., the AmSMART Group (2009). The PedsQL in pediatric patients with Spinal Muscular Atrophy: Feasibility, reliability, and validity of the Pediatric Quality of Life Inventory Generic Core Scales and Neuromuscular Module. Neuromuscular Disorders, 19, 805-812. Davis, S.E., Hynan, L.S., Limbers, C.A., Andersen, C.M., Greene, M.C., Varni, J.W., Iannaccone, S.T. (2010). The PedsQL in pediatric patients with Duchenne Muscular Dystrophy: Feasibility, reliability, and validity of the Pediatric Quality of Life Inventory Neuromuscular Module and Generic Core Scales. Journal of Clinical Neuromuscular Disease, 11, 97-109).", "preferredTerm": "Pediatric Quality of Life Neuromuscular Module Acute Version 3.0 Parent Report for Young Child Questionnaire", "submissionValue": "PEDSQL NEUROMUSCULAR MODULE ACUTE V3 YOUNG CHILD PARENT REPORT", "synonyms": ["PQL17"]}, {"conceptId": "C138347", "definition": "Pediatric Quality of Life (PedsQL) Neuromuscular Module Acute Version 3 Young Child (Copyright 1998 JW Varni, Ph.D. Iannaccone, S.T., Hynan, L.S., Morton, A., Buchanan, R., Limbers, C.A., Varni, J.W., the AmSMART Group (2009). The PedsQL in pediatric patients with Spinal Muscular Atrophy: Feasibility, reliability, and validity of the Pediatric Quality of Life Inventory Generic Core Scales and Neuromuscular Module. Neuromuscular Disorders, 19, 805-812. Davis, S.E., Hynan, L.S., Limbers, C.A., Andersen, C.M., Greene, M.C., Varni, J.W., Iannaccone, S.T. (2010). The PedsQL in pediatric patients with Duchenne Muscular Dystrophy: Feasibility, reliability, and validity of the Pediatric Quality of Life Inventory Neuromuscular Module and Generic Core Scales. Journal of Clinical Neuromuscular Disease, 11, 97-109).", "preferredTerm": "Pediatric Quality of Life Neuromuscular Module Acute Version 3.0 Young Child Report Questionnaire", "submissionValue": "PEDSQL NEUROMUSCULAR MODULE ACUTE V3 YOUNG CHILD", "synonyms": ["PQL16"]}, {"conceptId": "C138350", "definition": "Pediatric Quality of Life (PedsQL) Neuromuscular Module Version 3 Child Parent Report (Copyright 1998 JW Varni, Ph.D. Iannaccone, S.T., Hynan, L.S., Morton, A., Buchanan, R., Limbers, C.A., Varni, J.W., the AmSMART Group (2009). The PedsQL in pediatric patients with Spinal Muscular Atrophy: Feasibility, reliability, and validity of the Pediatric Quality of Life Inventory Generic Core Scales and Neuromuscular Module. Neuromuscular Disorders, 19, 805-812. Davis, S.E., Hynan, L.S., Limbers, C.A., Andersen, C.M., Greene, M.C., Varni, J.W., Iannaccone, S.T. (2010). The PedsQL in pediatric patients with Duchenne Muscular Dystrophy: Feasibility, reliability, and validity of the Pediatric Quality of Life Inventory Neuromuscular Module and Generic Core Scales. Journal of Clinical Neuromuscular Disease, 11, 97-109).", "preferredTerm": "Pediatric Quality of Life Neuromuscular Module Version 3.0 Parent Report for Child Questionnaire", "submissionValue": "PEDSQL NEUROMUSCULAR MODULE V3 CHILD PARENT REPORT", "synonyms": ["PQL06"]}, {"conceptId": "C138348", "definition": "Pediatric Quality of Life (PedsQL) Neuromuscular Module Version 3 Child (Copyright 1998 JW Varni, Ph.D. Iannaccone, S.T., Hynan, L.S., Morton, A., Buchanan, R., Limbers, C.A., Varni, J.W., the AmSMART Group (2009). The PedsQL in pediatric patients with Spinal Muscular Atrophy: Feasibility, reliability, and validity of the Pediatric Quality of Life Inventory Generic Core Scales and Neuromuscular Module. Neuromuscular Disorders, 19, 805-812. Davis, S.E., Hynan, L.S., Limbers, C.A., Andersen, C.M., Greene, M.C., Varni, J.W., Iannaccone, S.T. (2010). The PedsQL in pediatric patients with Duchenne Muscular Dystrophy: Feasibility, reliability, and validity of the Pediatric Quality of Life Inventory Neuromuscular Module and Generic Core Scales. Journal of Clinical Neuromuscular Disease, 11, 97-109).", "preferredTerm": "Pediatric Quality of Life Neuromuscular Module Version 3.0 Child Report Questionnaire", "submissionValue": "PEDSQL NEUROMUSCULAR MODULE V3 CHILD", "synonyms": ["PQL05"]}, {"conceptId": "C138351", "definition": "Pediatric Quality of Life (PedsQL) Neuromuscular Module Version 3 Teen Parent Report (Copyright 1998 JW Varni, Ph.D. Iannaccone, S.T., Hynan, L.S., Morton, A., Buchanan, R., Limbers, C.A., Varni, J.W., the AmSMART Group (2009). The PedsQL in pediatric patients with Spinal Muscular Atrophy: Feasibility, reliability, and validity of the Pediatric Quality of Life Inventory Generic Core Scales and Neuromuscular Module. Neuromuscular Disorders, 19, 805-812. Davis, S.E., Hynan, L.S., Limbers, C.A., Andersen, C.M., Greene, M.C., Varni, J.W., Iannaccone, S.T. (2010). The PedsQL in pediatric patients with Duchenne Muscular Dystrophy: Feasibility, reliability, and validity of the Pediatric Quality of Life Inventory Neuromuscular Module and Generic Core Scales. Journal of Clinical Neuromuscular Disease, 11, 97-109).", "preferredTerm": "Pediatric Quality of Life Neuromuscular Module Version 3.0 Parent Report for Teen Questionnaire", "submissionValue": "PEDSQL NEUROMUSCULAR MODULE V3 TEEN PARENT REPORT", "synonyms": ["PQL04"]}, {"conceptId": "C138354", "definition": "Pediatric Quality of Life (PedsQL) Neuromuscular Module Version 3 Teen (Copyright 1998 JW Varni, Ph.D. Iannaccone, S.T., Hynan, L.S., Morton, A., Buchanan, R., Limbers, C.A., Varni, J.W., the AmSMART Group (2009). The PedsQL in pediatric patients with Spinal Muscular Atrophy: Feasibility, reliability, and validity of the Pediatric Quality of Life Inventory Generic Core Scales and Neuromuscular Module. Neuromuscular Disorders, 19, 805-812. Davis, S.E., Hynan, L.S., Limbers, C.A., Andersen, C.M., Greene, M.C., Varni, J.W., Iannaccone, S.T. (2010). The PedsQL in pediatric patients with Duchenne Muscular Dystrophy: Feasibility, reliability, and validity of the Pediatric Quality of Life Inventory Neuromuscular Module and Generic Core Scales. Journal of Clinical Neuromuscular Disease, 11, 97-109).", "preferredTerm": "Pediatric Quality of Life Neuromuscular Module Version 3.0 Teen Report Questionnaire", "submissionValue": "PEDSQL NEUROMUSCULAR MODULE V3 TEEN", "synonyms": ["PQL03"]}, {"conceptId": "C138349", "definition": "Pediatric Quality of Life (PedsQL) Neuromuscular Module Version 3 Toddler Parent Report (Copyright 1998 JW Varni, Ph.D. Iannaccone, S.T., Hynan, L.S., Morton, A., Buchanan, R., Limbers, C.A., Varni, J.W., the AmSMART Group (2009). The PedsQL in pediatric patients with Spinal Muscular Atrophy: Feasibility, reliability, and validity of the Pediatric Quality of Life Inventory Generic Core Scales and Neuromuscular Module. Neuromuscular Disorders, 19, 805-812. Davis, S.E., Hynan, L.S., Limbers, C.A., Andersen, C.M., Greene, M.C., Varni, J.W., Iannaccone, S.T. (2010). The PedsQL in pediatric patients with Duchenne Muscular Dystrophy: Feasibility, reliability, and validity of the Pediatric Quality of Life Inventory Neuromuscular Module and Generic Core Scales. Journal of Clinical Neuromuscular Disease, 11, 97-109).", "preferredTerm": "Pediatric Quality of Life Neuromuscular Module Version 3.0 Parent of Toddler Questionnaire", "submissionValue": "PEDSQL NEUROMUSCULAR MODULE V3 TODDLER PARENT REPORT", "synonyms": ["PQL09"]}, {"conceptId": "C138352", "definition": "Pediatric Quality of Life (PedsQL) Neuromuscular Module Version 3 Young Adult Parent Report (Copyright 1998 JW Varni, Ph.D. Iannaccone, S.T., Hynan, L.S., Morton, A., Buchanan, R., Limbers, C.A., Varni, J.W., the AmSMART Group (2009). The PedsQL in pediatric patients with Spinal Muscular Atrophy: Feasibility, reliability, and validity of the Pediatric Quality of Life Inventory Generic Core Scales and Neuromuscular Module. Neuromuscular Disorders, 19, 805-812. Davis, S.E., Hynan, L.S., Limbers, C.A., Andersen, C.M., Greene, M.C., Varni, J.W., Iannaccone, S.T. (2010). The PedsQL in pediatric patients with Duchenne Muscular Dystrophy: Feasibility, reliability, and validity of the Pediatric Quality of Life Inventory Neuromuscular Module and Generic Core Scales. Journal of Clinical Neuromuscular Disease, 11, 97-109).", "preferredTerm": "Pediatric Quality of Life Neuromuscular Module Version 3.0 Parent Report for Young Adults Report Questionnaire", "submissionValue": "PEDSQL NEUROMUSCULAR MODULE V3 YOUNG ADULT PARENT REPORT", "synonyms": ["PQL02"]}, {"conceptId": "C138355", "definition": "Pediatric Quality of Life (PedsQL) Neuromuscular Module Version 3 Young Adult (Copyright 1998 JW Varni, Ph.D. Iannaccone, S.T., Hynan, L.S., Morton, A., Buchanan, R., Limbers, C.A., Varni, J.W., the AmSMART Group (2009). The PedsQL in pediatric patients with Spinal Muscular Atrophy: Feasibility, reliability, and validity of the Pediatric Quality of Life Inventory Generic Core Scales and Neuromuscular Module. Neuromuscular Disorders, 19, 805-812. Davis, S.E., Hynan, L.S., Limbers, C.A., Andersen, C.M., Greene, M.C., Varni, J.W., Iannaccone, S.T. (2010). The PedsQL in pediatric patients with Duchenne Muscular Dystrophy: Feasibility, reliability, and validity of the Pediatric Quality of Life Inventory Neuromuscular Module and Generic Core Scales. Journal of Clinical Neuromuscular Disease, 11, 97-109).", "preferredTerm": "Pediatric Quality of Life Neuromuscular Module Version 3.0 Young Adult Report Questionnaire", "submissionValue": "PEDSQL NEUROMUSCULAR MODULE V3 YOUNG ADULT", "synonyms": ["PQL01"]}, {"conceptId": "C138353", "definition": "Pediatric Quality of Life (PedsQL) Neuromuscular Module Version 3 Young Child Parent Report (Copyright 1998 JW Varni, Ph.D. Iannaccone, S.T., Hynan, L.S., Morton, A., Buchanan, R., Limbers, C.A., Varni, J.W., the AmSMART Group (2009). The PedsQL in pediatric patients with Spinal Muscular Atrophy: Feasibility, reliability, and validity of the Pediatric Quality of Life Inventory Generic Core Scales and Neuromuscular Module. Neuromuscular Disorders, 19, 805-812. Davis, S.E., Hynan, L.S., Limbers, C.A., Andersen, C.M., Greene, M.C., Varni, J.W., Iannaccone, S.T. (2010). The PedsQL in pediatric patients with Duchenne Muscular Dystrophy: Feasibility, reliability, and validity of the Pediatric Quality of Life Inventory Neuromuscular Module and Generic Core Scales. Journal of Clinical Neuromuscular Disease, 11, 97-109).", "preferredTerm": "Pediatric Quality of Life Neuromuscular Module Version 3.0 Parent Report for Young Child Questionnaire", "submissionValue": "PEDSQL NEUROMUSCULAR MODULE V3 YOUNG CHILD PARENT REPORT", "synonyms": ["PQL08"]}, {"conceptId": "C138356", "definition": "Pediatric Quality of Life (PedsQL) Neuromuscular Module Version 3 Young Child (Copyright 1998 JW Varni, Ph.D. Iannaccone, S.T., Hynan, L.S., Morton, A., Buchanan, R., Limbers, C.A., Varni, J.W., the AmSMART Group (2009). The PedsQL in pediatric patients with Spinal Muscular Atrophy: Feasibility, reliability, and validity of the Pediatric Quality of Life Inventory Generic Core Scales and Neuromuscular Module. Neuromuscular Disorders, 19, 805-812. Davis, S.E., Hynan, L.S., Limbers, C.A., Andersen, C.M., Greene, M.C., Varni, J.W., Iannaccone, S.T. (2010). The PedsQL in pediatric patients with Duchenne Muscular Dystrophy: Feasibility, reliability, and validity of the Pediatric Quality of Life Inventory Neuromuscular Module and Generic Core Scales. Journal of Clinical Neuromuscular Disease, 11, 97-109).", "preferredTerm": "Pediatric Quality of Life Neuromuscular Module Version 3.0 Young Child Report Questionnaire", "submissionValue": "PEDSQL NEUROMUSCULAR MODULE V3 YOUNG CHILD", "synonyms": ["PQL07"]}, {"conceptId": "C135739", "definition": "Patient Global Impression (PGI) generic modification for any disease/condition concept use case (Modified from Guy W: ECDEU Assessment Manual for Psychopharmacology. Rockville, MD: U.S. Department of Health, Education, and Welfare; 1976).", "preferredTerm": "Patient Global Impression Generic Modification Version Questionnaire", "submissionValue": "PGI", "synonyms": ["PGI01"]}, {"conceptId": "C125761", "definition": "Patient Health Questionnaire Screener Version (PHQ Screener) (Spitzer RL, Kroenke K, Williams JBW, for the Patient Health Questionnaire Primary Care Study Group. Validation and utility of a self-report version of PRIME-MD: the PHQ Primary Care Study. JAMA 1999;282:1737-1744. http://www.phqscreeners.com/instructions/instructions.pdf).", "preferredTerm": "Patient Health Questionnaire Screener Version", "submissionValue": "PHQ SCREENER VERSION", "synonyms": ["PHQ03"]}, {"conceptId": "C103527", "definition": "Patient Health Questionnaire - 15 (PHQ-15) (Kroenke K, Spitzer RL, Williams JBW. The PHQ-15: Validity of a new measure for evaluating the severity of somatic symptoms. Psychosom Med 2002; 64:258-266).", "preferredTerm": "Patient Health Questionnaire - 15 Item", "submissionValue": "PHQ-15", "synonyms": ["PHQ02"]}, {"conceptId": "C123386", "definition": "Patient Health Questionnaire-2 (PHQ-2) (Kroenke K, Spitzer RL, Williams JB. The Patient Health Questionnaire-2: Validity of a Two-Item Depression Screener. Medical Care. 2003;41:1284-92).", "preferredTerm": "Patient Health Questionnaire-2", "submissionValue": "PHQ-2", "synonyms": ["PHQ04"]}, {"conceptId": "C191043", "definition": "The Patient Health Questionnaire - 8 (PHQ-8) (Kroenke, K, Strine, TW, Spitzer, RL, Williams, JBW, Berry, JT, Mokdad, AH. The PHQ-8 as a measure of current depression in the general population. J Affect Disord. 2009 Apr;114(1-3):163-73). These materials discuss and/or include the Patient Health Questionnaire - 8 (PHQ-8) which is owned exclusively by the Pfizer. Inc. Use of the PHQ-8 is subject to Pfizer. Inc. terms of use. See (https://www.phqscreeners.com/select-screener PHQ-8 copyright 2009, Pfizer. Inc.", "preferredTerm": "The Patient Health Questionnaire - 8 Item", "submissionValue": "PHQ-8", "synonyms": ["PHQ05"]}, {"conceptId": "C103526", "definition": "Patient Health Questionnaire - 9 (PHQ-9) (Kroenke K, Spitzer RL, Williams JBW. The PHQ-9: Validity of a brief depression severity measure. J Gen Intern Med 2001; 16:606-613).", "preferredTerm": "Patient Health Questionnaire - 9 Item", "submissionValue": "PHQ-9", "synonyms": ["PHQ01"]}, {"conceptId": "C105167", "definition": "Pain Intensity (PI) (STANDARDS, Standardized Analgesic Database for Research, Discovery, and Submissions, and sponsored by ACTTION, Analgesic Clinical Trial Translations, Innovations, Opportunities, and Networks. www.acttion.org; 2012-08-07 v1. Handbook of Pain Assessment, Third Edition [Hardcover] Chapter 2 - Self-Report Scales and Procedures for Assessing Pain in Adults: Dennis C. Turk PhD (Editor), Ronald Melzack PhD (Editor)). CDISC believes this instrument to be in the public domain, but you should perform your own assessment.", "preferredTerm": "STANDARDS Pain Intensity Questionnaire", "submissionValue": "PI", "synonyms": ["PI01"]}, {"conceptId": "C135743", "definition": "Pediatric Outcomes Data Collection Instrument (PODCI), Adolescent Parent-Reported (Daltroy LH, Liang MH, Fossel AH, Goldberg MJ, and The Outcomes Instrument Development Work Group. The POSNA Pediatric Musculoskeletal Functional Health Questionnaire:report on reliability, validity, and sensitivity to change. J Pediatr Orthop 1998; 18: 561-71).", "preferredTerm": "Pediatric Outcomes Data Collection Instrument, Adolescent Parent-Reported Version Questionnaire", "submissionValue": "PODCI - ADOLESCENT PARENT REPORTED", "synonyms": ["PODCI2"]}, {"conceptId": "C135744", "definition": "Pediatric Outcomes Data Collection Instrument (PODCI), Adolescent Self-Reported (Daltroy LH, Liang MH, Fossel AH, Goldberg MJ, and The Outcomes Instrument Development Work Group. The POSNA Pediatric Musculoskeletal Functional Health Questionnaire:report on reliability, validity, and sensitivity to change. J Pediatr Orthop 1998; 18: 561-71).", "preferredTerm": "Pediatric Outcomes Data Collection Instrument, Adolescent Self-Reported Version Questionnaire", "submissionValue": "PODCI - ADOLESCENT SELF REPORTED", "synonyms": ["PODCI3"]}, {"conceptId": "C135742", "definition": "Pediatric Outcomes Data Collection Instrument (PODCI), Pediatric Parent-Reported (Daltroy LH, Liang MH, Fossel AH, Goldberg MJ, and The Outcomes Instrument Development Work Group. The POSNA Pediatric Musculoskeletal Functional Health Questionnaire: report on reliability, validity, and sensitivity to change. J Pediatr Orthop 1998; 18: 561-71).", "preferredTerm": "Pediatric Outcomes Data Collection Instrument, Pediatric Parent-Reported Version Questionnaire", "submissionValue": "PODCI - PEDIATRIC PARENT REPORTED", "synonyms": ["PODCI1"]}, {"conceptId": "C105168", "definition": "Pain Relief (PR) (STANDARDS, Standardized Analgesic Database for Research, Discovery, and Submissions, and sponsored by ACTTION, Analgesic Clinical Trial Translations, Innovations, Opportunities, and Networks. www.acttion.org; 2012-08-07 v1. Handbook of Pain Assessment, Third Edition [Hardcover] Chapter 2 - Self-Report Scales and Procedures for Assessing Pain in Adults: Dennis C. Turk PhD (Editor), Ronald Melzack PhD (Editor)). CDISC believes this instrument to be in the public domain, but you should perform your own assessment.", "preferredTerm": "STANDARDS Pain Relief Questionnaire", "submissionValue": "PR", "synonyms": ["PR01"]}, {"conceptId": "C179975", "definition": "Patient-Reported Outcomes Version of the Common Terminology Criteria for Adverse Events (PRO-CTCAE) Item Library Version 1.0 (PRO-CTCAE V1.0) (The PRO-CTCAE trademark items and information herein were developed by the Division of Cancer Control and Population Sciences in the National Cancer Institute at the National Institutes of Health, in Bethesda, Maryland, U.S.A. Use of the PRO-CTCAE is subject to NCI's \"Terms of Use\". PRO-CTCAE Measurement System content should be downloaded using the \"Instrument & Form Builder\". https://healthcaredelivery.cancer.gov/pro-ctcae/. Basch E, Reeve BB, Mitchell SA, Clauser SB, Minasian LM, Dueck AC, Mendoza TR, Hay J, Atkinson TM, Abernethy AP, Bruner DW, Cleeland CS, Sloan JA, Chilukuri R, Baumgartner P, Denicoff A, St Germain D, O'Mara AM, Chen A, Kelaghan J, Bennett AV, Sit L, Rogak L, Barz A, Paul DB, Schrag D. Development of the National Cancer Institute's patient-reported outcomes version of the common terminology criteria for adverse events (PRO-CTCAE).J Natl Cancer Inst 2014 Sep 29;106(9). National Institutes of Health - National Cancer Institute, Division of Cancer Control & Population Sciences. (2017, July 2) https://healthcaredelivery.cancer.gov/pro-ctcae/overview.html). These materials discuss and/or include the Patient-Reported Outcomes Version of the Common Terminology Criteria for Adverse Events  (PRO-CTCAE) Item Library Version 1.0 (PRO-CTCAE V1.0) which is owned exclusively by the Division of Cancer Control and Population Sciences in the National Cancer Institute (NCI) at the National Institutes of Health (NIH). No part of the PRO-CTCAE V1.0 may be reproduced, distributed, or transmitted in any form or by any means, including photocopying recording, or other electronic or mechanical methods, without the prior written permission of NCI and payment of any applicable fees. PRO-CTCAE V1.0 copyright, National Cancer Institute at the National Institutes of Health. All rights reserved.", "preferredTerm": "Patient-Reported Outcomes Version of the Common Terminology Criteria for Adverse Events Item Library Version 1.0 Questionnaire", "submissionValue": "PRO-CTCAE V1.0", "synonyms": ["PT01"]}, {"conceptId": "C127372", "definition": "Prostate Cancer Specific Quality of Life Instrument (PROSQOLI) (Stockler MR, Osoba D, Corey P, Goodwin PJ, Tannock IF. Convergent discriminitive, and predictive validity of the Prostate Cancer Specific Quality of Life Instrument (PROSQOLI) assessment and comparison with analogous scales from the EORTC QLQ-C30 and a trial-specific module. European Organisation for Research and Treatment of Cancer. Core Quality of Life Questionnaire. JClinEpidemiol 1999;52:653-66)", "preferredTerm": "Prostate Cancer Specific Quality of Life Instrument Questionnaire", "submissionValue": "PROSQOLI", "synonyms": ["PROS01"]}, {"conceptId": "C103849", "definition": "Pittsburgh Sleep Quality Index (PSQI) (Copyright 1989, University of Pittsburgh. Buysse,D.J., Reynolds,C.F., Monk,T.H., Berman,S.R., & Kupfer, D.J. The Pittsburgh Sleep Quality Index (PSQI): A new instrument for psychiatric practice and research. Psychiatry Research, 1989, 28(2):193-213).", "preferredTerm": "Pittsburgh Sleep Quality Index", "submissionValue": "PSQI", "synonyms": ["PSQI1"]}, {"conceptId": "C130317", "definition": "Quality Of Life Enjoyment And Satisfaction Questionnaire (Q-LES-Q) (Copyright Jean Endicott, PhD; Unit 123, 1051 Riverside Drive, New York, NY 10032. 212-543-5536; Endicott J, Nee J, Harrison W, Blumenthal R. Quality of Life Enjoyment and Satisfaction Questionnaire: a new measure. Psychopharmacol Bull. 1993;29(2):321-6).", "preferredTerm": "Quality Of Life Enjoyment And Satisfaction Questionnaire", "submissionValue": "Q-LES-Q", "synonyms": ["QLES1"]}, {"conceptId": "C130318", "definition": "Quality Of Life Enjoyment And Satisfaction Questionnaire - Short Form (Q-LES-Q-SF) (Copyright Jean Endicott, PhD; Unit 123, 1051 Riverside Drive, New York, NY 10032. 212-543-5536; Endicott J, Nee J, Harrison W, Blumenthal R. Quality of Life Enjoyment and Satisfaction Questionnaire: a new measure. Psychopharmacol Bull. 1993;29(2):321-6).", "preferredTerm": "Quality of Life Enjoyment and Satisfaction Questionnaire-Short Form", "submissionValue": "Q-LES-Q-SF", "synonyms": ["QLES2"]}, {"conceptId": "C130316", "definition": "Quick Inventory of Depressive Symptomatology - Self-Report (QIDS-SR) (Copyright UT Southwestern Medical Center at Dallas. Rush AJ, Trivedi MH, Ibrahim HM, Carmody TJ, Arnow B, Klein DN, Markowitz JC, Ninan PT, Kornstein S, Manber R, Thase ME, Kocsis JH, Keller MB. The 16-item Quick Inventory of Depressive Symptomatology (QIDS) Clinician Rating (QIDS-C) and Self-Report (QIDS-SR): A psychometric evaluation in patients with chronic major depression. Biological Psychiatry, 54:573-583, 2003).", "preferredTerm": "Quick Inventory of Depressive Symptomatology Self-Report Version Questionnaire", "submissionValue": "QIDS-SR", "synonyms": ["QIDSR1"]}, {"conceptId": "C135745", "definition": "RAND Social Support Survey Instrument (Copyright the RAND Corporation. Developed at RAND as part of the Medical Outcomes Study).", "preferredTerm": "RAND Social Support Survey Instrument Questionnaire", "submissionValue": "RAND SOCIAL SUPPORT SURVEY INSTRUMENT", "synonyms": ["RSSS01"]}, {"conceptId": "C113879", "definition": "RAND 36-Item Health Survey 1.0 (RAND-36) (Copyright the RAND Corporation. Developed at RAND as part of the Medical Outcomes Study).", "preferredTerm": "RAND 36-Item Health Survey 1.0 Questionnaire", "submissionValue": "RAND-36 V1.0", "synonyms": ["R3601"]}, {"conceptId": "C187517", "definition": "REM Sleep Behavior Disorder Screening Questionnaire (RBDSQ) (Stiasny-Kolster K, Mayer G, Schafer S, Moller JC, Heinzel-Gutenbrunner M, Oertel WH. The REM sleep behavior disorder screening questionnaire--a new diagnostic instrument. Mov Disord. 2007 Dec;22(16):2386-93. RBDSQ 2007 International Parkinson and Movement Disorder Society (MDS). All Rights Reserved). No part of the REM Sleep Behavior Disorder Screening Questionnaire may be reproduced, distributed, or transmitted in any form or by any means, including photocopying, recording, or other electronic or mechanical methods, without the prior written permission of International Parkinson and Movement Disorder Society and payment of any applicable fees. Copyright International Parkinson and Movement Disorder Society 2007. All Rights Reserved.", "preferredTerm": "REM Sleep Behavior Disorder Screening Questionnaire", "submissionValue": "RBDSQ", "synonyms": ["RBD1"]}, {"conceptId": "C100774", "definition": "Roland Morris Disability Questionnaire (RDQ) (Roland MO, Morris RW. A study of the natural history of back pain. Part 1: Development of a reliable and sensitive measure of disability in low back pain. Spine 1983;8:141-144).", "preferredTerm": "Roland Morris Disability Questionnaire", "submissionValue": "RDQ", "synonyms": ["RDQ01"]}, {"conceptId": "C119103", "definition": "Rivermead Post Concussion Symptoms Questionnaire (RPQ) (King NS, Crawford S, Wenden FJ, Moss NEG, Wade DT. The Rivermead Post Concussion Symptoms Questionnaire: a measure of symptoms commonly experienced after head injury and its reliability. J Neurol. 1995;242:587-592).", "preferredTerm": "Rivermead Post-Concussion Symptoms Questionnaire", "submissionValue": "RPQ", "synonyms": ["RPQ01"]}, {"conceptId": "C187513", "definition": "Scales for Outcomes in Parkinson's Disease - Autonomic Dysfunction (SCOPA-AUT) (Visser M, Marinus J, Stiggelbout AM, Van Hilten JJ. Assessment of autonomic dysfunction in Parkinson's disease: the SCOPA-AUT. Mov Disord 2004;19:1306-12. Copyright 2019 International Parkinson and Movement Disorder Society. All rights reserved.). No part of the Scales for Outcomes in Parkinson's Disease - Autonomic Dysfunction may be reproduced, distributed, or transmitted in any form or by any means, including photocopying, recording, or other electronic or mechanical methods, without the prior written permission of the International Parkinson and Movement Disorder Society and payment of any applicable fees. Copyright International Parkinson and Movement Disorder Society 2019. All rights reserved.", "preferredTerm": "Scales for Outcomes in Parkinson's Disease - Autonomic Dysfunction Questionnaire", "submissionValue": "SCOPA-AUT", "synonyms": ["SP1"]}, {"conceptId": "C111384", "definition": "Sheehan Disability Scale (Copyright 1983, 2010, 2011 David V. Sheehan. All rights reserved.).", "preferredTerm": "Sheehan Disability Scale Questionnaire", "submissionValue": "SDS", "synonyms": ["SDS01"]}, {"conceptId": "C174065", "definition": "The Short Form 10 Health Survey for Children, Acute, US Version 1.0 (SF10 v1.0 CHILDREN ACUTE) (copyright 2001, 2005, 2011 QualityMetric Incorporated. All rights reserved). These materials discuss and/or include one or more of the SF Health Surveys, which are owned exclusively by QualityMetric Incorporated. No part of the SF Health Surveys may be reproduced, distributed, or transmitted in any form or by any means, including photocopying, recording, or other electronic or mechanical methods, without the prior written permission of QualityMetric Incorporated and payment of any applicable fees. Copyright QualityMetric Incorporated. All rights reserved.", "preferredTerm": "Short Form 10 Health Survey for Children Acute, US Version 1.0 Questionnaire", "submissionValue": "SF10 V1.0 CHILDREN ACUTE", "synonyms": ["SF102"]}, {"conceptId": "C174064", "definition": "The Short Form 10 Health Survey for Children, Standard, US Version 1.0 (SF10 v1.0 CHILDREN STANDARD) (copyright 2001, 2005 QualityMetric Incorporated. All rights reserved). These materials discuss and/or include one or more of the SF Health Surveys, which are owned exclusively by QualityMetric Incorporated. No part of the SF Health Surveys may be reproduced, distributed, or transmitted in any form or by any means, including photocopying, recording, or other electronic or mechanical methods, without the prior written permission of QualityMetric Incorporated and payment of any applicable fees. Copyright QualityMetric Incorporated. All rights reserved.", "preferredTerm": "Short Form 10 Health Survey for Children Standard, US Version 1.0 Questionnaire", "submissionValue": "SF10 V1.0 CHILDREN STANDARD", "synonyms": ["SF101"]}, {"conceptId": "C174067", "definition": "The Short Form 12 Health Survey, Acute, US Version 1.0 (SF12 v1.0 ACUTE) (copyright 1994, 2002 by Medical Outcomes Trust and QualityMetric Incorporated. All rights reserved). These materials discuss and/or include one or more of the SF Health Surveys, which are owned exclusively by QualityMetric Incorporated. No part of the SF Health Surveys may be reproduced, distributed, or transmitted in any form or by any means, including photocopying, recording, or other electronic or mechanical methods, without the prior written permission of QualityMetric Incorporated and payment of any applicable fees. Copyright QualityMetric Incorporated. All rights reserved.", "preferredTerm": "Short Form 12 Health Survey Acute, US Version 1.0 Questionnaire", "submissionValue": "SF12 V1.0 ACUTE", "synonyms": ["SF122"]}, {"conceptId": "C174066", "definition": "The Short Form 12 Health Survey, Standard, US Version 1.0 (SF12 v1.0 STANDARD) (copyright 1994, 2002 by Medical Outcomes Trust and QualityMetric Incorporated. All rights reserved). These materials discuss and/or include one or more of the SF Health Surveys, which are owned exclusively by QualityMetric Incorporated. No part of the SF Health Surveys may be reproduced, distributed, or transmitted in any form or by any means, including photocopying, recording, or other electronic or mechanical methods, without the prior written permission of QualityMetric Incorporated and payment of any applicable fees. Copyright QualityMetric Incorporated. All rights reserved.", "preferredTerm": "Short Form 12 Health Survey Standard, US Version 1.0 Questionnaire", "submissionValue": "SF12 V1.0 STANDARD", "synonyms": ["SF121"]}, {"conceptId": "C174069", "definition": "The Short Form 12 Health Survey, Acute, US Version 2.0 (SF12 v2.0 ACUTE) (copyright 1994, 2002 Medical Outcomes Trust and QualityMetric Incorporated. All rights reserved). These materials discuss and/or include one or more of the SF Health Surveys, which are owned exclusively by QualityMetric Incorporated. No part of the SF Health Surveys may be reproduced, distributed, or transmitted in any form or by any means, including photocopying, recording, or other electronic or mechanical methods, without the prior written permission of QualityMetric Incorporated and payment of any applicable fees. Copyright QualityMetric Incorporated. All rights reserved.", "preferredTerm": "Short Form 12 Health Survey Acute, US Version 2.0 Questionnaire", "submissionValue": "SF12 V2.0 ACUTE", "synonyms": ["SF124"]}, {"conceptId": "C174068", "definition": "The Short Form 12 Health Survey, Standard, US Version 2.0 (SF12 v2.0 STANDARD) (copyright 1994, 2002 Medical Outcomes Trust and QualityMetric Incorporated. All rights reserved). These materials discuss and/or include one or more of the SF Health Surveys, which are owned exclusively by QualityMetric Incorporated. No part of the SF Health Surveys may be reproduced, distributed, or transmitted in any form or by any means, including photocopying, recording, or other electronic or mechanical methods, without the prior written permission of QualityMetric Incorporated and payment of any applicable fees. Copyright QualityMetric Incorporated. All rights reserved.", "preferredTerm": "Short Form 12 Health Survey Standard, US Version 2.0 Questionnaire", "submissionValue": "SF12 V2.0 STANDARD", "synonyms": ["SF123"]}, {"conceptId": "C102120", "definition": "The Short Form 36 Health Survey Acute, US Version 1.0 (SF36 V1.0 ACUTE) (copyright 1988, 2002 by Medical Outcomes Trust and QualityMetric Incorporated. All rights reserved). These materials discuss and/or include one or more of the SF Health Surveys, which are owned exclusively by QualityMetric Incorporated. No part of the SF Health Surveys may be reproduced, distributed, or transmitted in any form or by any means, including photocopying, recording, or other electronic or mechanical methods, without the prior written permission of QualityMetric Incorporated and payment of any applicable fees. Copyright QualityMetric Incorporated. All rights reserved.", "preferredTerm": "Short Form 36 Health Survey Acute, US Version 1.0 Questionnaire", "submissionValue": "SF36 V1.0 ACUTE", "synonyms": ["SF362"]}, {"conceptId": "C100775", "definition": "The Short Form 36 Health Survey Standard, US Version 1.0 (SF36 V1.0 STANDARD) (copyright 1988, 2002 by Medical Outcomes Trust and QualityMetric Incorporated. All rights reserved). These materials discuss and/or include one or more of the SF Health Surveys, which are owned exclusively by QualityMetric Incorporated. No part of the SF Health Surveys may be reproduced, distributed, or transmitted in any form or by any means, including photocopying, recording, or other electronic or mechanical methods, without the prior written permission of QualityMetric Incorporated and payment of any applicable fees. Copyright QualityMetric Incorporated. All rights reserved.", "preferredTerm": "Short Form 36 Health Survey Standard, US Version 1.0 Questionnaire", "submissionValue": "SF36 V1.0 STANDARD", "synonyms": ["SF361"]}, {"conceptId": "C102121", "definition": "The Short Form 36 Health Survey Acute, US Version 2.0 (SF36 V2.0 ACUTE) (copyright 1992, 1996, 2000 Medical Outcomes Trust and QualityMetric Incorporated. All rights reserved). These materials discuss and/or include one or more of the SF Health Surveys, which are owned exclusively by QualityMetric Incorporated. No part of the SF Health Surveys may be reproduced, distributed, or transmitted in any form or by any means, including photocopying, recording, or other electronic or mechanical methods, without the prior written permission of QualityMetric Incorporated and payment of any applicable fees. Copyright QualityMetric Incorporated. All rights reserved.", "preferredTerm": "Short Form 36 Health Survey Acute, US Version 2.0 Questionnaire", "submissionValue": "SF36 V2.0 ACUTE", "synonyms": ["SF364"]}, {"conceptId": "C102122", "definition": "The Short Form 36 Health Survey Standard, US Version 2.0 (SF36 V2.0 STANDARD) (copyright 1992, 1996, 2000 Medical Outcomes Trust and QualityMetric Incorporated. All rights reserved). These materials discuss and/or include one or more of the SF Health Surveys, which are owned exclusively by QualityMetric Incorporated. No part of the SF Health Surveys may be reproduced, distributed, or transmitted in any form or by any means, including photocopying, recording, or other electronic or mechanical methods, without the prior written permission of QualityMetric Incorporated and payment of any applicable fees. Copyright QualityMetric Incorporated. All rights reserved.", "preferredTerm": "Short Form 36 Health Survey Standard, US Version 2.0 Questionnaire", "submissionValue": "SF36 V2.0 STANDARD", "synonyms": ["SF363"]}, {"conceptId": "C185761", "definition": "SF-6Dv2 Health Utility Survey Acute, English Version 2.0 (SF6D V2.0 ACUTE) (copyright 2021 QualityMetric Incorporated, LLC. All rights reserved). These materials discuss and/or include one or more of the SF Health Surveys, which are owned exclusively by QualityMetric Incorporated, LLC. No part of the SF Health Surveys may be reproduced, distributed, or transmitted in any form or by any means, including photocopying, recording, or other electronic or mechanical methods, without the prior written permission of QualityMetric and payment of any applicable fees. Copyright QualityMetric Incorporated, LLC. All rights reserved.", "preferredTerm": "SF-6Dv2 Health Utility Survey Acute, English Version 2.0 Questionnaire", "submissionValue": "SF6D V2.0 ACUTE", "synonyms": ["SF6D2"]}, {"conceptId": "C185762", "definition": "SF-6Dv2 Health Utility Survey Standard, English Version 2.0 (SF6D V2.0 STANDARD) (copyright 2021 QualityMetric Incorporated, LLC. All rights reserved). These materials discuss and/or include one or more of the SF Health Surveys, which are owned exclusively by QualityMetric Incorporated, LLC. No part of the SF Health Surveys may be reproduced, distributed, or transmitted in any form or by any means, including photocopying, recording, or other electronic or mechanical methods, without the prior written permission of QualityMetric and payment of any applicable fees. Copyright QualityMetric Incorporated, LLC. All rights reserved.", "preferredTerm": "SF-6Dv2 Health Utility Survey Standard, English Version 2.0 Questionnaire", "submissionValue": "SF6D V2.0 STANDARD", "synonyms": ["SF6D1"]}, {"conceptId": "C174063", "definition": "The Short Form 8 Health Survey, Acute, US Version 1.0 (SF8 v1.0 ACUTE) (copyright 1999, 2001 QualityMetric Incorporated. All rights reserved). These materials discuss and/or include one or more of the SF Health Surveys, which are owned exclusively by QualityMetric Incorporated. No part of the SF Health Surveys may be reproduced, distributed, or transmitted in any form or by any means, including photocopying, recording, or other electronic or mechanical methods, without the prior written permission of QualityMetric Incorporated and payment of any applicable fees. Copyright QualityMetric Incorporated. All rights reserved.", "preferredTerm": "Short Form 8 Health Survey Acute, US Version 1.0 Questionnaire", "submissionValue": "SF8 V1.0 ACUTE", "synonyms": ["SF82"]}, {"conceptId": "C174062", "definition": "The Short Form 8 Health Survey, Standard, US Version 1.0 (SF8 v1.0 STANDARD) (copyright 1998, 1999 QualityMetric Incorporated. All rights reserved). These materials discuss and/or include one or more of the SF Health Surveys, which are owned exclusively by QualityMetric Incorporated. No part of the SF Health Surveys may be reproduced, distributed, or transmitted in any form or by any means, including photocopying, recording, or other electronic or mechanical methods, without the prior written permission of QualityMetric Incorporated and payment of any applicable fees. Copyright QualityMetric Incorporated. All rights reserved.", "preferredTerm": "Short Form 8 Health Survey Standard, US Version 1.0 Questionnaire", "submissionValue": "SF8 V1.0 STANDARD", "synonyms": ["SF81"]}, {"conceptId": "C112525", "definition": "St. George's Respiratory Questionnaire (SGRQ) Past 3 Months Version (copyright P.W. Jones, St. George's University of London).", "preferredTerm": "St. George's Respiratory Questionnaire Past 3 Months Version", "submissionValue": "SGRQ PAST 3 MONTHS VERSION", "synonyms": ["SGRQ01"]}, {"conceptId": "C112526", "definition": "St. George's Respiratory Questionnaire (SGRQ) Past 4 Weeks Version (copyright P.W. Jones, St. George's University of London).", "preferredTerm": "St. George's Respiratory Questionnaire Past 4 Weeks Version", "submissionValue": "SGRQ PAST 4 WEEKS VERSION", "synonyms": ["SGRQ02"]}, {"conceptId": "C106890", "definition": "St. George's Respiratory Questionnaire for COPD Patients (SGRQ-C) (Jones PW, Quirk FH, Baveystock CM, and Littlejohns PA. Self-complete measure of health status for chronic airflow limitation. The St. George's Respiratory Questionnaire. Am Rev Respir Dis. 1992 Jun; 145(6):1321-7).", "preferredTerm": "St. George's Respiratory Questionnaire for Chronic Obstructive Pulmonary Disease Patients", "submissionValue": "SGRQ-C", "synonyms": ["SGRQC1"]}, {"conceptId": "C100776", "definition": "Short-Form McGill Pain Questionnaire-2 (SF-MPQ-2) (Copyright R. Melzack and the Initiative on Methods, Measurement, and Pain Assessment in Clinical Trials (IMMPACT), 2009, All Rights Reserved).", "preferredTerm": "Short-Form McGill Pain Questionnaire-2", "submissionValue": "SHORT-FORM MPQ-2", "synonyms": ["SFMP2"]}, {"conceptId": "C150920", "definition": "Suicidal Ideation Questionnaire (SIQ) (Copyright 1987 Psychological Assessment Resources, Inc. (PAR). All rights reserved. May not be reproduced in whole or in part in any form or by any means without written permission of Psychological Assessment Resources, Inc.).", "preferredTerm": "Suicidal Ideation Questionnaire", "submissionValue": "SIQ", "synonyms": ["SIQ01"]}, {"conceptId": "C150921", "definition": "Suicidal Ideation Questionnaire-JR (SIQ-JR) (Copyright 1987 Psychological Assessment Resources, Inc. (PAR). All rights reserved. May not be reproduced in whole or in part in any form or by any means without written permission of Psychological Assessment Resources, Inc.).", "preferredTerm": "Suicidal Ideation Questionnaire-Junior", "submissionValue": "SIQ-JR", "synonyms": ["SIQ02"]}, {"conceptId": "C103528", "definition": "Symptom Impact Questionnaire (SIQR) (copyright 2009 Bennett RM and Friend. All Rights Reserved.).", "preferredTerm": "Symptom Impact Questionnaire", "submissionValue": "SIQR", "synonyms": ["SIQR01"]}, {"conceptId": "C155328", "definition": "Symptoms of Major Depressive Disorder Scale v1.0 (SMDDS V1.0) (Version 1.0 Copyright 2015 Critical Path Institute. All Rights Reserved. McCarrier KP, Deal LS, Abraham L, Blum SI, Bush EN, Martin M, Thase ME, Coons SJ on behalf of the Patient-Reported Outcome Consortium's Depression Working Group. Patient-centered research to support the development of the Symptoms of Major Depressive Disorder Scale (SMDDS): initial qualitative research. The Patient-Patient-Centered Outcomes Research 2016;9:117-134. Patient-Reported Outcome (PRO) Consortium - Symptoms of Major Depressive Disorder Scale (SMDDS) User Manual, Version 1: October 31, 2017). No part of the SMDDS V1.0 may be reproduced, distributed, or transmitted in any form or by any means, including photocopying, recording, or other electronic or mechanical methods, without the prior written permission of the Critical Path Institute and payment of any applicable fees. Copyright Critical Path Institute, 2018. All rights reserved).", "preferredTerm": "Symptoms of Major Depressive Disorder Scale v1.0 Questionnaire", "submissionValue": "SMDDS V1.0", "synonyms": ["SMDDS1"]}, {"conceptId": "C100777", "definition": "Screener and Opioid Assessment for Patients with Pain Revised (SOAPP-R) (copyright 2007 Inflexxion, Inc., All rights reserved).", "preferredTerm": "Screener and Opioid Assessment for Patients with Pain Revised Questionnaire", "submissionValue": "SOAPP-R", "synonyms": ["SOAPR1"]}, {"conceptId": "C123659", "definition": "Shortness of Breath with Daily Activities Questionnaire (SOBDA) (Wilcox TK, Chen WH, Howard KA, Wiklund I, Brooks J, Watkins ML, Cates CE, Tabberer MM, Crim C. Item selection, reliability and validity of the Shortness of Breath with Daily Activities (SOBDA) questionnaire: a new outcome measure for evaluating dyspnea in chronic obstructive pulmonary disease. Health and Quality of Life Outcomes 2013 11:196).", "preferredTerm": "Shortness of Breath with Daily Activities Questionnaire", "submissionValue": "SOBDA", "synonyms": ["SOBDA1"]}, {"conceptId": "C103529", "definition": "Short Opiate Withdrawal Scale (SOWS SHORT) (Gossop, M. The development of a short opiate withdrawal scale. Addictive Behaviors 1990; 15:487-490).", "preferredTerm": "Short Opiate Withdrawal Scale Questionnaire", "submissionValue": "SOWS SHORT", "synonyms": ["SOWSB1"]}, {"conceptId": "C102123", "definition": "The Subjective Opiate Withdrawal Scale (SOWS) (Handelsman, L., Cochrane, K. J., Aronson, M. J. Ness, R., Rubinstein K.J., Kanof, P.D. (1987) Two New Rating Scales for Opiate Withdrawal. American Journal of Alcohol Abuse, 13, 293-308).", "preferredTerm": "Subjective Opiate Withdrawal Scale Questionnaire", "submissionValue": "SOWS SUBJECTIVE", "synonyms": ["SOWSA1"]}, {"conceptId": "C187511", "definition": "Stanford Sleepiness Scale (SSS) (Hoddes E, Dement W, Zarcone V. The development and use of the Stanford Sleepiness Scale (SSS). Psychophysiology 1971;9:150. Hoddes E, Zarcone V, Smythe H, Phillips R, Dement WC. Quantification of sleepiness: a new approach. Psychophysiology. 1973 Jul;10(4):431-6). CDISC believes this instrument to be in the public domain, but you should perform your own assessment.", "preferredTerm": "Stanford Sleepiness Scale Questionnaire", "submissionValue": "SSS", "synonyms": ["SSS01"]}, {"conceptId": "C115799", "definition": "The Satisfaction With Life Scale (SWLS) (Diener, E., Emmons, R., Larsen, J., and Griffin, S. (1985). The Satisfaction With Life Scale. J Personality Assessment, 49(1): 71-75).", "preferredTerm": "Satisfaction With Life Scale Questionnaire", "submissionValue": "SWLS", "synonyms": ["SWLS01"]}, {"conceptId": "C161655", "definition": "Diabetes Distress Scale for Adults with Type 1 Diabetes (T1-DDS) (Fisher L, Polonsky WH, Hessler DM, Masharani U, Blumer I, Peters AL, Strycker LA, Bowyer V. Understanding the sources of diabetes distress in adults with type 1 diabetes. J Diabetes Complications 2015; 29(4): 572-7).", "preferredTerm": "Diabetes Distress Scale for Adults with Type 1 Diabetes Questionnaire", "submissionValue": "T1-DDS", "synonyms": ["DDS01"]}, {"conceptId": "C147587", "definition": "Trauma Symptom Checklist for Children (TSCC) (Copyright 1989, 1996 by PAR. All rights reserved. May not be reproduced in whole or in part in any form or by any means without written permission of PAR).", "preferredTerm": "Trauma Symptom Checklist for Children Questionnaire", "submissionValue": "TSCC", "synonyms": ["TSCC01"]}, {"conceptId": "C147588", "definition": "Trauma Symptom Checklist for Young Children (TSCYC) (Copyright 1999, 2005 by Psychological Assessment Resources, Inc. (PAR). All rights reserved. May not be reproduced in whole or in part in any form or by any means without written permission of Psychological Assessment Resources, Inc).", "preferredTerm": "Trauma Symptom Checklist for Young Children Questionnaire", "submissionValue": "TSCYC", "synonyms": ["TSCYC1"]}, {"conceptId": "C132535", "definition": "Treatment Satisfaction Questionnaire for Medication - Version 1.4 (TSQM V1.4) (Copyright 2004, Quintiles. All Rights Reserved).", "preferredTerm": "Treatment Satisfaction Questionnaire for Medication Version 1.4", "submissionValue": "TSQM V1.4", "synonyms": ["TSQM01"]}, {"conceptId": "C103530", "definition": "Urgency Perception Scale (UPS) (copyright Pfizer. All rights reserved.).", "preferredTerm": "Urgency Perception Scale Questionnaire", "submissionValue": "UPS", "synonyms": ["UPS01"]}, {"conceptId": "C112527", "definition": "National Eye Institute Visual Functioning Questionnaire - 25 (VFQ-25) Version 2000 Interviewer-Administered Format (Mangione, C. M., Lee, P. P., Gutierrez, P. R., Spritzer, K., Berry, S., & Hays, R. D. Development of the 25-item National Eye Institute Visual Function Questionnaire (VFQ-25). Archives of Ophthalmology. 2001; 119:1050-1058). (This instrument was developed at RAND under the sponsorship of the National Eye Institute).", "preferredTerm": "Visual Functioning Questionnaire 25-Interviewer Administered Format Version 2000", "submissionValue": "VFQ-25 INTERVIEWER ADMINISTERED", "synonyms": ["VFQ1"]}, {"conceptId": "C112528", "definition": "National Eye Institute Visual Functioning Questionnaire - 25 (VFQ-25) Version 2000 Self-Administered Format (Mangione, C. M., Lee, P. P., Gutierrez, P. R., Spritzer, K., Berry, S., & Hays, R. D. Development of the 25-item National Eye Institute Visual Function Questionnaire (VFQ-25). Archives of Ophthalmology. 2001; 119:1050-1058). (This instrument was developed at RAND under the sponsorship of the National Eye Institute).", "preferredTerm": "Visual Functioning Questionnaire 25-Self Administered Format Version 2000", "submissionValue": "VFQ-25 SELF ADMINISTERED", "synonyms": ["VFQ2"]}, {"conceptId": "C92446", "definition": "Voice Handicap Index (VHI) (Development and Validation. Barbara H. Jacobson, Alex Johnson, Cynthia Grywalski, Alice Silbergleit, Gary Jaconsen, Michael S. Benninger. American Journal of Speech-Language Pathology, Vol 6(3), 66-70, 1997. The Voice Handicap Index is reprinted with permission from all authors and ASHA. Copyright 1997-2001 American Speech-Language-Hearing Association). No part of the VHI may be reproduced, distributed, or transmitted in any form or by any means, including photocopying, recording, or other electronic or mechanical methods, without the prior written permission of the authors and American Speech-Language-Hearing Association and payment of any applicable fees. Copyright American Speech-Language-Hearing Association 1997-2001. All rights reserved.", "preferredTerm": "Voice Handicap Index", "submissionValue": "VHI", "synonyms": ["VHI01"]}, {"conceptId": "C130325", "definition": "World Health Organization Disability Assessment Schedule 2.0 - 12+24-item Version, Interviewer-administered (WHODAS 2.0 - 12+24-item Version Interviewer-administered) (Reproduced, with permission of WHO, from Measuring Health and Disability: Manual for WHO Disability Assessment Schedule (WHODAS 2.0). Geneva,World Health Organization, 2010 (WHODAS 2.0 12+24-Item Version, Interviewer-Administered www.who.int/classifications/icf/whodasii/en)).", "preferredTerm": "World Health Organization Disability Assessment Schedule 2.0 12+24-item Version Interviewer-administered Questionnaire", "submissionValue": "WHODAS 2.0 - 12 + 24-ITEM INTERVIEWER", "synonyms": ["WD4"]}, {"conceptId": "C130322", "definition": "World Health Organization Disability Assessment Schedule 2.0 - 12-item Version, Interviewer-administered (WHODAS 2.0 - 12-item Version Interviewer-administered) (Reproduced, with permission of WHO, from Measuring Health and Disability: Manual for WHO Disability Assessment Schedule (WHODAS 2.0). Geneva,World Health Organization, 2010 (WHODAS 2.0 12-Item Version, Interviewer-Administered www.who.int/classifications/icf/whodasii/en)).", "preferredTerm": "World Health Organization Disability Assessment Schedule 2.0 12-item Version Interviewer-administered Questionnaire", "submissionValue": "WHODAS 2.0 - 12-ITEM INTERVIEWER", "synonyms": ["WD1"]}, {"conceptId": "C130323", "definition": "World Health Organization Disability Assessment Schedule 2.0 - 12-item Version, Proxy-administered (WHODAS 2.0 - 12-item Version Proxy-administered) (Reproduced, with permission of WHO, from Measuring Health and Disability: Manual for WHO Disability Assessment Schedule (WHODAS 2.0). Geneva,World Health Organization, 2010 (WHODAS 2.0 12-Item Version, Proxy-Administered www.who.int/classifications/icf/whodasii/en)).", "preferredTerm": "World Health Organization Disability Assessment Schedule 2.0 12-item Version Proxy-administered Questionnaire", "submissionValue": "WHODAS 2.0 - 12-ITEM PROXY", "synonyms": ["WD2"]}, {"conceptId": "C130324", "definition": "World Health Organization Disability Assessment Schedule 2.0 - 12-item Version, Self-administered (WHODAS 2.0 - 12-item Version Self-administered) (Reproduced, with permission of WHO, from Measuring Health and Disability: Manual for WHO Disability Assessment Schedule (WHODAS 2.0). Geneva,World Health Organization, 2010 (WHODAS 2.0 12-Item Version, Self-Administered www.who.int/classifications/icf/whodasii/en)).", "preferredTerm": "World Health Organization Disability Assessment Schedule 2.0 12-item Version Self-administered Questionnaire", "submissionValue": "WHODAS 2.0 - 12-ITEM SELF", "synonyms": ["WD3"]}, {"conceptId": "C130319", "definition": "World Health Organization Disability Assessment Schedule 2.0 - 36-item Version, Interviewer-administered (WHODAS 2.0 - 36-item Version Interviewer-administered) (Reproduced, with permission of WHO, from Measuring Health and Disability: Manual for WHO Disability Assessment Schedule (WHODAS 2.0). Geneva,World Health Organization, 2010 (WHODAS 2.0 36-Item Version, Interviewer-Administered www.who.int/classifications/icf/whodasii/en)).", "preferredTerm": "World Health Organization Disability Assessment Schedule 2.0 36-item Version Interviewer-administered Questionnaire", "submissionValue": "WHODAS 2.0 - 36-ITEM INTERVIEWER", "synonyms": ["WD5"]}, {"conceptId": "C130320", "definition": "World Health Organization Disability Assessment Schedule 2.0 - 36-item Version, Proxy-administered (WHODAS 2.0 - 36-item Version Proxy-administered) (Reproduced, with permission of WHO, from Measuring Health and Disability: Manual for WHO Disability Assessment Schedule (WHODAS 2.0). Geneva,World Health Organization, 2010 (WHODAS 2.0 36-Item Version, Proxy-Administered www.who.int/classifications/icf/whodasii/en)).", "preferredTerm": "World Health Organization Disability Assessment Schedule 2.0 36-item Version Proxy-administered Questionnaire", "submissionValue": "WHODAS 2.0 - 36-ITEM PROXY", "synonyms": ["WD6"]}, {"conceptId": "C130321", "definition": "World Health Organization Disability Assessment Schedule 2.0 - 36-item Version, Self-administered (WHODAS 2.0 - 36-item Version Self-administered) (Reproduced, with permission of WHO, from Measuring Health and Disability: Manual for WHO Disability Assessment Schedule (WHODAS 2.0). Geneva,World Health Organization, 2010 (WHODAS 2.0 36-Item Version, Self-Administered www.who.int/classifications/icf/whodasii/en)).", "preferredTerm": "World Health Organization Disability Assessment Schedule 2.0 36-item Version Self-administered Questionnaire", "submissionValue": "WHODAS 2.0 - 36-ITEM SELF", "synonyms": ["WD7"]}, {"conceptId": "C119096", "definition": "Work Limitations Questionnaire (WLQ) (copyright 1998. The Health Institute, Tufts Medical Center f/k/a New England Medical Center Hospitals, Inc.; Debra Lerner, Ph.D.; Benjamin Amick III, Ph.D.; and GlaxoWellcome, Inc. All Rights Reserved).", "preferredTerm": "Work Limitations Questionnaire", "submissionValue": "WLQ", "synonyms": ["WLQ01"]}, {"conceptId": "C122384", "definition": "Western Ontario and McMaster Universities Osteoarthritis Index Version 3.1 Likert Scale Format (WOMAC LK 3.1) (Bellamy N. WOMAC Osteoarthritis Index User Guide. Version V. Brisbane, Australia 2002; WOMAC 3.1 User Guide XI; WOMAC is a registered trade-mark. Copyright 2008. Prof Nicholas Bellamy. All Rights Reserved).", "preferredTerm": "Western Ontario and McMaster Universities Osteoarthritis Index Version 3.1 Likert Scale Format Questionnaire", "submissionValue": "WOMAC LK 3.1 INDEX", "synonyms": ["WOMAC1"]}, {"conceptId": "C122385", "definition": "Western Ontario and McMaster Universities Osteoarthritis Index Version 3.1 Numerical Rating Scale Format (WOMAC NRS 3.1) (Bellamy N. WOMAC Osteoarthritis Index User Guide. Version V. Brisbane, Australia 2002; WOMAC 3.1 User Guide XI; WOMAC is a registered trade-mark. Copyright 2008. Prof Nicholas Bellamy. All Rights Reserved).", "preferredTerm": "Western Ontario and McMaster Universities Osteoarthritis Index Version 3.1 Numerical Rating Scale Format Questionnaire", "submissionValue": "WOMAC NRS 3.1 INDEX", "synonyms": ["WOMAC2"]}, {"conceptId": "C122386", "definition": "Western Ontario and McMaster Universities Osteoarthritis Index Version 3.1 Visual Analog Scale Format (WOMAC VA 3.1) (Bellamy N. WOMAC Osteoarthritis Index User Guide. Version V. Brisbane, Australia 2002; WOMAC 3.1 User Guide XI; WOMAC is a registered trade-mark. Copyright 2008. Prof Nicholas Bellamy. All Rights Reserved).", "preferredTerm": "Western Ontario and McMaster Universities Osteoarthritis Index Version 3.1 Visual Analog Scale Format Questionnaire", "submissionValue": "WOMAC VA 3.1 INDEX", "synonyms": ["WOMAC3"]}, {"conceptId": "C123285", "definition": "The Work Productivity and Activity Impairment - General Health Version 2.0 (WPAI-GH V2.0) (Reilly MC, Zbrozek AS, Dukes EM. The validity and reproducibility of a work productivity and activity impairment instrument. PharmacoEconomics 1993; 4(5):353-65. http://www.reillyassociates.net/WPAI_GH.html. http://www.reillyassociates.net/WPAI_General.html).", "preferredTerm": "Work Productivity and Activity Impairment General Health V2.0 Questionnaire", "submissionValue": "WPAI-GH V2.0", "synonyms": ["WPAI02"]}, {"conceptId": "C100779", "definition": "The Work Productivity and Activity Impairment - Specific Health Problems Questionnaire Version 2.0 (WPAI-SHP V2.0) (Reilly MC, Zbrozek AS, Dukes EM. The validity and reproducibility of a work productivity and activity impairment instrument. PharmacoEconomics 1993; 4(5):353-65. These materials discuss and/or include the Work Productivity and Activity Impairment Specific Health Problems Questionnaire Version 2.0 (WPAI-SHP V2.0), which is owned exclusively by Reilly Associates. Use of the WPAI-SHP is subject to Reilly Associates terms of use (See http://www.reillyassociates.net/WPAI_General.html).", "preferredTerm": "Work Productivity and Activity Impairment Specific Health Problems Version 2.0 Questionnaire", "submissionValue": "WPAI-SHP V2.0", "synonyms": ["WPAI01"]}, {"conceptId": "C102124", "definition": "Young Mania Rating Scale (YMRS) (Young RC, Biggs JT, Ziegler VE et al: A rating scale for mania: reliability, validity and sensitivity. Br J Psychiatry 133: 429-435, 1978).", "preferredTerm": "Young Mania Rating Scale Questionnaire", "submissionValue": "YMRS", "synonyms": ["YMRS01"]}]}