{"_links": {"parentPackage": {"href": "/mdr/ct/packages/sdtmct-2022-12-16", "title": "SDTM Controlled Terminology Package 52 Effective 2022-12-16", "type": "Terminology"}, "priorVersion": {"href": "/mdr/ct/packages/sdtmct-2022-09-30/codelists/C101825", "title": "CDISC Questionnaire SF36 v2.0 Acute Test Name Terminology", "type": "Code List"}, "rootItem": {"href": "/mdr/root/ct/sdtmct/codelists/C101825", "title": "Version-agnostic anchor resource for codelist C101825", "type": "Root Value Domain"}, "self": {"href": "/mdr/ct/packages/sdtmct-2022-12-16/codelists/C101825", "title": "CDISC Questionnaire SF36 v2.0 Acute Test Name Terminology", "type": "Code List"}}, "conceptId": "C101825", "definition": "The Short Form 36 Health Survey Acute, US Version 2.0 test name.", "extensible": "false", "name": "The Short Form 36 Health Survey Acute, US Version 2.0 Questionnaire Test Name", "preferredTerm": "CDISC Questionnaire SF36 v2.0 Acute Test Name Terminology", "submissionValue": "SF364TN", "synonyms": ["The Short Form 36 Health Survey Acute, US Version 2.0 Questionnaire Test Name"], "terms": [{"conceptId": "C176165", "definition": "The Short Form 36 Health Survey Acute, US Version 2.0 - Bodily pain 0-100 score.", "preferredTerm": "SF-36 v2.0 Acute - Bodily Pain 0-100 Score", "submissionValue": "SF364-Bodily Pain 0-100 Score", "synonyms": ["SF364-Bodily Pain 0-100 Score"]}, {"conceptId": "C176173", "definition": "The Short Form 36 Health Survey Acute, US Version 2.0 - Bodily pain norm-based score.", "preferredTerm": "SF-36 v2.0 Acute - Bodily Pain Norm-Based Score", "submissionValue": "SF364-Bodily Pain Norm-Based Score", "synonyms": ["SF364-Bodily Pain Norm-Based Score"]}, {"conceptId": "C102162", "definition": "The Short Form 36 Health Survey Acute, US Version 2.0 - Compared to one week ago, how would you rate your health in general now?", "preferredTerm": "SF-36 v2.0 Acute - Comp Week Ago Rate Gen Health Now", "submissionValue": "SF364-Comp Week Ago Rate Gen Health Now", "synonyms": ["SF364-Comp Week Ago Rate Gen Health Now"]}, {"conceptId": "C102183", "definition": "The Short Form 36 Health Survey Acute, US Version 2.0 - Please give the one answer that comes closest to the way you have been feeling. How much of the time during the past week - did you feel full of life.", "preferredTerm": "SF-36 v2.0 Acute - Did You Feel Full of Life", "submissionValue": "SF364-Did You Feel Full of Life", "synonyms": ["SF364-Did You Feel Full of Life"]}, {"conceptId": "C102191", "definition": "The Short Form 36 Health Survey Acute, US Version 2.0 - Please give the one answer that comes closest to the way you have been feeling. How much of the time during the past week - did you feel tired.", "preferredTerm": "SF-36 v2.0 Acute - Did You Feel Tired", "submissionValue": "SF364-Did You Feel Tired", "synonyms": ["SF364-Did You Feel Tired"]}, {"conceptId": "C102189", "definition": "The Short Form 36 Health Survey Acute, US Version 2.0 - Please give the one answer that comes closest to the way you have been feeling. How much of the time during the past week - did you feel worn out.", "preferredTerm": "SF-36 v2.0 Acute - Did You Feel Worn Out", "submissionValue": "SF364-Did You Feel Worn Out", "synonyms": ["SF364-Did You Feel Worn Out"]}, {"conceptId": "C102187", "definition": "The Short Form 36 Health Survey Acute, US Version 2.0 - Please give the one answer that comes closest to the way you have been feeling. How much of the time during the past week - did you have a lot of energy.", "preferredTerm": "SF-36 v2.0 Acute - Did You Have a Lot of Energy", "submissionValue": "SF364-Did You Have a Lot of Energy", "synonyms": ["SF364-Did You Have a Lot of Energy"]}, {"conceptId": "C102178", "definition": "The Short Form 36 Health Survey Acute, US Version 2.0 - During the past week, how much of the time have you had problems with your work or other regular daily activities as a result of any emotional problems (such as feeling depressed or anxious) - accomplished less than you would like.", "preferredTerm": "SF-36 v2.0 Acute - Emotional: Accomplished Less", "submissionValue": "SF364-Emotional: Accomplished Less", "synonyms": ["SF364-Emotional: Accomplished Less"]}, {"conceptId": "C102177", "definition": "The Short Form 36 Health Survey Acute, US Version 2.0 - During the past week, how much of the time have you had problems with your work or other regular daily activities as a result of any emotional problems (such as feeling depressed or anxious) - cut down on the amount of time you spent on work or other activities.", "preferredTerm": "SF-36 v2.0 Acute - Emotional: Cut Down Time on Work", "submissionValue": "SF364-Emotional: Cut Down Time on Work", "synonyms": ["SF364-Emotional: Cut Down Time on Work"]}, {"conceptId": "C102179", "definition": "The Short Form 36 Health Survey Acute, US Version 2.0 - During the past week, how much of the time have you had problems with your work or other regular daily activities as a result of any emotional problems (such as feeling depressed or anxious) - did work or other activities less carefully than usual.", "preferredTerm": "SF-36 v2.0 Acute - Emotional: Did Work Less Carefully", "submissionValue": "SF364-Emotional: Did Work Less Carefully", "synonyms": ["SF364-Emotional: Did Work Less Carefully"]}, {"conceptId": "C102180", "definition": "The Short Form 36 Health Survey Acute, US Version 2.0 - During the past week, to what extent has your physical health or emotional problems interfered with your normal social activities with family, friends, neighbors, or groups?", "preferredTerm": "SF-36 v2.0 Acute - Extent Phys/Emotional Interfered", "submissionValue": "SF364-Extent Phys/Emotional Interfered", "synonyms": ["SF364-Extent Phys/Emotional Interfered"]}, {"conceptId": "C102185", "definition": "The Short Form 36 Health Survey Acute, US Version 2.0 - Please give the one answer that comes closest to the way you have been feeling. How much of the time during the past week - have you felt so down in the dumps that nothing could cheer you up.", "preferredTerm": "SF-36 v2.0 Acute - Felt Down Nothing Cheer You Up", "submissionValue": "SF364-Felt Down Nothing Cheer You Up", "synonyms": ["SF364-Felt Down Nothing Cheer You Up"]}, {"conceptId": "C176166", "definition": "The Short Form 36 Health Survey Acute, US Version 2.0 - General health 0-100 score.", "preferredTerm": "SF-36 v2.0 Acute - General Health 0-100 Score", "submissionValue": "SF364-General Health 0-100 Score", "synonyms": ["SF364-General Health 0-100 Score"]}, {"conceptId": "C176174", "definition": "The Short Form 36 Health Survey Acute, US Version 2.0 - General health norm-based score.", "preferredTerm": "SF-36 v2.0 Acute - General Health Norm-Based Score", "submissionValue": "SF364-General Health Norm-Based Score", "synonyms": ["SF364-General Health Norm-Based Score"]}, {"conceptId": "C102193", "definition": "The Short Form 36 Health Survey Acute, US Version 2.0 - How TRUE or FALSE is the following statement for you - I seem to get sick a little easier than other people.", "preferredTerm": "SF-36 v2.0 Acute - Get Sick Little Easier Than Other", "submissionValue": "SF364-Get Sick Little Easier Than Other", "synonyms": ["SF364-Get Sick Little Easier Than Other"]}, {"conceptId": "C102190", "definition": "The Short Form 36 Health Survey Acute, US Version 2.0 - Please give the one answer that comes closest to the way you have been feeling. How much of the time during the past week - have you been happy.", "preferredTerm": "SF-36 v2.0 Acute - Have You Been Happy", "submissionValue": "SF364-Have You Been Happy", "synonyms": ["SF364-Have You Been Happy"]}, {"conceptId": "C102184", "definition": "The Short Form 36 Health Survey Acute, US Version 2.0 - Please give the one answer that comes closest to the way you have been feeling. How much of the time during the past week - have you been very nervous.", "preferredTerm": "SF-36 v2.0 Acute - Have You Been Very Nervous", "submissionValue": "SF364-Have You Been Very Nervous", "synonyms": ["SF364-Have You Been Very Nervous"]}, {"conceptId": "C102186", "definition": "The Short Form 36 Health Survey Acute, US Version 2.0 - Please give the one answer that comes closest to the way you have been feeling. How much of the time during the past week - have you felt calm and peaceful.", "preferredTerm": "SF-36 v2.0 Acute - Have You Felt Calm and Peaceful", "submissionValue": "SF364-Have You Felt Calm and Peaceful", "synonyms": ["SF364-Have You Felt Calm and Peaceful"]}, {"conceptId": "C102181", "definition": "The Short Form 36 Health Survey Acute, US Version 2.0 - How much bodily pain have you had during the past week?", "preferredTerm": "SF-36 v2.0 Acute - How Much Bodily Pain Have You Had", "submissionValue": "SF364-How Much Bodily Pain Have You Had", "synonyms": ["SF364-How Much Bodily Pain Have You Had"]}, {"conceptId": "C102194", "definition": "The Short Form 36 Health Survey Acute, US Version 2.0 - How TRUE or FALSE is the following statement for you - I am as healthy as anybody I know.", "preferredTerm": "SF-36 v2.0 Acute - I Am as Healthy as Anybody I Know", "submissionValue": "SF364-I Am as Healthy as Anybody I Know", "synonyms": ["SF364-I Am as Healthy as Anybody I Know"]}, {"conceptId": "C102195", "definition": "The Short Form 36 Health Survey Acute, US Version 2.0 - How TRUE or FALSE is the following statement for you - I expect my health to get worse.", "preferredTerm": "SF-36 v2.0 Acute - I Expect My Health to Get Worse", "submissionValue": "SF364-I Expect My Health to Get Worse", "synonyms": ["SF364-I Expect My Health to Get Worse"]}, {"conceptId": "C102161", "definition": "The Short Form 36 Health Survey Acute, US Version 2.0 - In general, would you say your health is.", "preferredTerm": "SF-36 v2.0 Acute - In General You Say Your Health Is", "submissionValue": "SF364-In General You Say Your Health Is", "synonyms": ["SF364-In General You Say Your Health Is"]}, {"conceptId": "C102172", "definition": "The Short Form 36 Health Survey Acute, US Version 2.0 - How much does your health now limit you in - bathing or dressing yourself.", "preferredTerm": "SF-36 v2.0 Acute - Limit Bathing or Dressing Yourself", "submissionValue": "SF364-Limit Bathing or Dressing Yourself", "synonyms": ["SF364-Limit Bathing or Dressing Yourself"]}, {"conceptId": "C102168", "definition": "The Short Form 36 Health Survey Acute, US Version 2.0 - How much does your health now limit you in - bending, kneeling, or stooping.", "preferredTerm": "SF-36 v2.0 Acute - Limit Bending/Kneeling/Stooping", "submissionValue": "SF364-Limit Bending/Kneeling/Stooping", "synonyms": ["SF364-Limit Bending/Kneeling/Stooping"]}, {"conceptId": "C102167", "definition": "The Short Form 36 Health Survey Acute, US Version 2.0 - How much does your health now limit you in - climbing one flight of stairs.", "preferredTerm": "SF-36 v2.0 Acute - Limit Climbing One Flight Stairs", "submissionValue": "SF364-Limit Climbing One Flight Stairs", "synonyms": ["SF364-Limit Climbing One Flight Stairs"]}, {"conceptId": "C102166", "definition": "The Short Form 36 Health Survey Acute, US Version 2.0 - How much does your health now limit you in - climbing several flights of stairs.", "preferredTerm": "SF-36 v2.0 Acute - Limit Climbing Several Flights", "submissionValue": "SF364-Limit Climbing Several Flights", "synonyms": ["SF364-Limit Climbing Several Flights"]}, {"conceptId": "C102165", "definition": "The Short Form 36 Health Survey Acute, US Version 2.0 - How much does your health now limit you in - lifting or carrying groceries.", "preferredTerm": "SF-36 v2.0 Acute - Limit Lifting or Carrying", "submissionValue": "SF364-Limit Lifting or Carrying", "synonyms": ["SF364-Limit Lifting or Carrying"]}, {"conceptId": "C102164", "definition": "The Short Form 36 Health Survey Acute, US Version 2.0 - How much does your health now limit you in - moderate activities, such as moving a table, pushing a vacuum cleaner, bowling, or playing golf.", "preferredTerm": "SF-36 v2.0 Acute - Limit Moderate Activities", "submissionValue": "SF364-Limit Moderate Activities", "synonyms": ["SF364-Limit Moderate Activities"]}, {"conceptId": "C102163", "definition": "The Short Form 36 Health Survey Acute, US Version 2.0 - How much does your health now limit you in - vigorous activities, such as running, lifting heavy objects, participating in strenuous sports.", "preferredTerm": "SF-36 v2.0 Acute - Limit Vigorous Activities", "submissionValue": "SF364-Limit Vigorous Activities", "synonyms": ["SF364-Limit Vigorous Activities"]}, {"conceptId": "C102169", "definition": "The Short Form 36 Health Survey Acute, US Version 2.0 - How much does your health now limit you in - walking more than a mile.", "preferredTerm": "SF-36 v2.0 Acute - Limit Walking More Than a Mile", "submissionValue": "SF364-Limit Walking More Than a Mile", "synonyms": ["SF364-Limit Walking More Than a Mile"]}, {"conceptId": "C102171", "definition": "The Short Form 36 Health Survey Acute, US Version 2.0 - How much does your health now limit you in - walking one hundred yards.", "preferredTerm": "SF-36 v2.0 Acute - Limit Walking One Hundred Yards", "submissionValue": "SF364-Limit Walking One Hundred Yards", "synonyms": ["SF364-Limit Walking One Hundred Yards"]}, {"conceptId": "C102170", "definition": "The Short Form 36 Health Survey Acute, US Version 2.0 - How much does your health now limit you in - walking several hundred yards.", "preferredTerm": "SF-36 v2.0 Acute - Limit Walking Several Hundred Yds", "submissionValue": "SF364-Limit Walking Several Hundred Yds", "synonyms": ["SF364-Limit Walking Several Hundred Yds"]}, {"conceptId": "C176180", "definition": "The Short Form 36 Health Survey Acute, US Version 2.0 - Mental component score.", "preferredTerm": "SF-36 v2.0 Acute - Mental Component Score", "submissionValue": "SF364-Mental Component Score", "synonyms": ["SF364-Mental Component Score"]}, {"conceptId": "C176170", "definition": "The Short Form 36 Health Survey Acute, US Version 2.0 - Mental health 0-100 score.", "preferredTerm": "SF-36 v2.0 Acute - Mental Health 0-100 Score", "submissionValue": "SF364-Mental Health 0-100 Score", "synonyms": ["SF364-Mental Health 0-100 Score"]}, {"conceptId": "C176183", "definition": "The Short Form 36 Health Survey Acute, US Version 2.0 - Mental health enhanced score.", "preferredTerm": "SF-36 v2.0 Acute - Mental Health Enhanced Score", "submissionValue": "SF364-Mental Health Enhanced Score", "synonyms": ["SF364-Mental Health Enhanced Score"]}, {"conceptId": "C176178", "definition": "The Short Form 36 Health Survey Acute, US Version 2.0 - Mental health norm-based score.", "preferredTerm": "SF-36 v2.0 Acute - Mental Health Norm-Based Score", "submissionValue": "SF364-Mental Health Norm-Based Score", "synonyms": ["SF364-Mental Health Norm-Based Score"]}, {"conceptId": "C102196", "definition": "The Short Form 36 Health Survey Acute, US Version 2.0 - How TRUE or FALSE is the following statement for you - my health is excellent", "preferredTerm": "SF-36 v2.0 Acute - My Health is Excellent", "submissionValue": "SF364-My Health is Excellent", "synonyms": ["SF364-My Health is Excellent"]}, {"conceptId": "C102182", "definition": "The Short Form 36 Health Survey Acute, US Version 2.0 - During the past week, how much did pain interfere with your normal work (including both work outside the home and housework)?", "preferredTerm": "SF-36 v2.0 Acute - Pain Interfere With Normal Work", "submissionValue": "SF364-Pain Interfere With Normal Work", "synonyms": ["SF364-Pain Interfere With Normal Work"]}, {"conceptId": "C176171", "definition": "The Short Form 36 Health Survey Acute, US Version 2.0 - Phys functioning norm-based score.", "preferredTerm": "SF-36 v2.0 Acute - Phys Functioning Norm-Based Score", "submissionValue": "SF364-Phys Functioning Norm-Based Score", "synonyms": ["SF364-Phys Functioning Norm-Based Score"]}, {"conceptId": "C176179", "definition": "The Short Form 36 Health Survey Acute, US Version 2.0 - Physical component score.", "preferredTerm": "SF-36 v2.0 Acute - Physical Component Score", "submissionValue": "SF364-Physical Component Score", "synonyms": ["SF364-Physical Component Score"]}, {"conceptId": "C176163", "definition": "The Short Form 36 Health Survey Acute, US Version 2.0 - Physical functioning 0-100 score.", "preferredTerm": "SF-36 v2.0 Acute - Physical Functioning 0-100 Score", "submissionValue": "SF364-Physical Functioning 0-100 Score", "synonyms": ["SF364-Physical Functioning 0-100 Score"]}, {"conceptId": "C102174", "definition": "The Short Form 36 Health Survey Acute, US Version 2.0 - During the past week, how much of the time have you had any problems with your work or other regular daily activities as a result of your physical health - accomplished less than you would like.", "preferredTerm": "SF-36 v2.0 Acute - Physical: Accomplished Less", "submissionValue": "SF364-Physical: Accomplished Less", "synonyms": ["SF364-Physical: Accomplished Less"]}, {"conceptId": "C102173", "definition": "The Short Form 36 Health Survey Acute, US Version 2.0 - During the past week, how much of the time have you had any problems with your work or other regular daily activities as a result of your physical health - cut down on the amount of time you spent on work or other activities.", "preferredTerm": "SF-36 v2.0 Acute - Physical: Cut Down Time on Work", "submissionValue": "SF364-Physical: Cut Down Time on Work", "synonyms": ["SF364-Physical: Cut Down Time on Work"]}, {"conceptId": "C102176", "definition": "The Short Form 36 Health Survey Acute, US Version 2.0 - During the past week, how much of the time have you had any problems with your work or other regular daily activities as a result of your physical health - had difficulty performing the work or other activities (for example, it took extra effort).", "preferredTerm": "SF-36 v2.0 Acute - Physical: Difficulty Perform Work", "submissionValue": "SF364-Physical: Difficulty Perform Work", "synonyms": ["SF364-Physical: Difficulty Perform Work"]}, {"conceptId": "C102175", "definition": "The Short Form 36 Health Survey Acute, US Version 2.0 - During the past week, how much of the time have you had any problems with your work or other regular daily activities as a result of your physical health - were limited in the kind of work or other activities.", "preferredTerm": "SF-36 v2.0 Acute - Physical: Limited Kind of Work", "submissionValue": "SF364-Physical: Limited Kind of Work", "synonyms": ["SF364-Physical: Limited Kind of Work"]}, {"conceptId": "C180247", "definition": "The Short Form 36 Health Survey Acute, US Version 2.0 - Response consistency score.", "preferredTerm": "SF-36 v2.0 Acute - Response Consistency Score", "submissionValue": "SF364-Response Consistency Score", "synonyms": ["SF364-Response Consistency Score"]}, {"conceptId": "C176169", "definition": "The Short Form 36 Health Survey Acute, US Version 2.0 - Role emotional 0-100 score.", "preferredTerm": "SF-36 v2.0 Acute - Role Emotional 0-100 Score", "submissionValue": "SF364-Role Emotional 0-100 Score", "synonyms": ["SF364-Role Emotional 0-100 Score"]}, {"conceptId": "C176177", "definition": "The Short Form 36 Health Survey Acute, US Version 2.0 - Role emotional norm-based score.", "preferredTerm": "SF-36 v2.0 Acute - Role Emotional Norm-Based Score", "submissionValue": "SF364-Role Emotional Norm-Based Score", "synonyms": ["SF364-Role Emotional Norm-Based Score"]}, {"conceptId": "C176164", "definition": "The Short Form 36 Health Survey Acute, US Version 2.0 - Role physical 0-100 score.", "preferredTerm": "SF-36 v2.0 Acute - Role Physical 0-100 Score", "submissionValue": "SF364-Role Physical 0-100 Score", "synonyms": ["SF364-Role Physical 0-100 Score"]}, {"conceptId": "C176172", "definition": "The Short Form 36 Health Survey Acute, US Version 2.0 - Role physical norm-based score.", "preferredTerm": "SF-36 v2.0 Acute - Role Physical Norm-Based Score", "submissionValue": "SF364-Role Physical Norm-Based Score", "synonyms": ["SF364-Role Physical Norm-Based Score"]}, {"conceptId": "C176181", "definition": "The Short Form 36 Health Survey Acute, US Version 2.0 - 6D (utility index) score.", "preferredTerm": "SF-36 v2.0 Acute - SF-6D (Utility Index) Score", "submissionValue": "SF364-SF-6D (Utility Index) Score", "synonyms": ["SF364-SF-6D (Utility Index) Score"]}, {"conceptId": "C176182", "definition": "The Short Form 36 Health Survey Acute, US Version 2.0 - 6D_R2 (util index rel 2) score.", "preferredTerm": "SF-36 v2.0 Acute - SF-6D_R2 (Util Index Rel 2) Score", "submissionValue": "SF364-SF-6D_R2 (Util Index Rel 2) Score", "synonyms": ["SF364-SF-6D_R2 (Util Index Rel 2) Score"]}, {"conceptId": "C176176", "definition": "The Short Form 36 Health Survey Acute, US Version 2.0 - Social function norm-based score.", "preferredTerm": "SF-36 v2.0 Acute - Social Function Norm-Based Score", "submissionValue": "SF364-Social Function Norm-Based Score", "synonyms": ["SF364-Social Function Norm-Based Score"]}, {"conceptId": "C176168", "definition": "The Short Form 36 Health Survey Acute, US Version 2.0 - Social functioning 0-100 score.", "preferredTerm": "SF-36 v2.0 Acute - Social Functioning 0-100 Score", "submissionValue": "SF364-Social Functioning 0-100 Score", "synonyms": ["SF364-Social Functioning 0-100 Score"]}, {"conceptId": "C102192", "definition": "The Short Form 36 Health Survey Acute, US Version 2.0 - During the past week, how much of the time has your physical health or emotional problems interfered with your social activities (like visiting friends, relatives, etc.)?", "preferredTerm": "SF-36 v2.0 Acute - Time Phys/Emotional Interfered", "submissionValue": "SF364-Time Phys/Emotional Interfered", "synonyms": ["SF364-Time Phys/Emotional Interfered"]}, {"conceptId": "C185785", "definition": "The Short Form 36 Health Survey Acute, US Version 2.0 - Utility index score Australia weights.", "preferredTerm": "SF-36 v2.0 Acute - Utility Index Score AU Weights", "submissionValue": "SF364-Utility Index Score AU Weights", "synonyms": ["SF364-Utility Index Score AU Weights"]}, {"conceptId": "C185784", "definition": "The Short Form 36 Health Survey Acute, US Version 2.0 - Utility index score Canada weights.", "preferredTerm": "SF-36 v2.0 Acute - Utility Index Score CN Weights", "submissionValue": "SF364-Utility Index Score CN Weights", "synonyms": ["SF364-Utility Index Score CN Weights"]}, {"conceptId": "C185783", "definition": "The Short Form 36 Health Survey Acute, US Version 2.0 - Utility index score United Kingdom weights.", "preferredTerm": "SF-36 v2.0 Acute - Utility Index Score UK Weights", "submissionValue": "SF364-Utility Index Score UK Weights", "synonyms": ["SF364-Utility Index Score UK Weights"]}, {"conceptId": "C185786", "definition": "The Short Form 36 Health Survey Acute, US Version 2.0 - Utility index score United States weights.", "preferredTerm": "SF-36 v2.0 Acute - Utility Index Score US Weights", "submissionValue": "SF364-Utility Index Score US Weights", "synonyms": ["SF364-Utility Index Score US Weights"]}, {"conceptId": "C176167", "definition": "The Short Form 36 Health Survey Acute, US Version 2.0 - Vitality 0-100 score.", "preferredTerm": "SF-36 v2.0 Acute - Vitality 0-100 Score", "submissionValue": "SF364-Vitality 0-100 Score", "synonyms": ["SF364-Vitality 0-100 Score"]}, {"conceptId": "C176175", "definition": "The Short Form 36 Health Survey Acute, US Version 2.0 - Vitality norm-based score.", "preferredTerm": "SF-36 v2.0 Acute - Vitality Norm-Based Score", "submissionValue": "SF364-Vitality Norm-Based Score", "synonyms": ["SF364-Vitality Norm-Based Score"]}, {"conceptId": "C102188", "definition": "The Short Form 36 Health Survey Acute, US Version 2.0 - Please give the one answer that comes closest to the way you have been feeling. How much of the time during the past week - have you felt downhearted and depressed.", "preferredTerm": "SF-36 v2.0 Acute - You Felt Downhearted and Depressed", "submissionValue": "SF364-You Felt Downhearted and Depressed", "synonyms": ["SF364-You Felt Downhearted and Depressed"]}]}