{"_links": {"parentPackage": {"href": "/mdr/ct/packages/sdtmct-2022-12-16", "title": "SDTM Controlled Terminology Package 52 Effective 2022-12-16", "type": "Terminology"}, "priorVersion": {"href": "/mdr/ct/packages/sdtmct-2022-09-30/codelists/C101849", "title": "CDISC SDTM Coronary Artery Disease Risk Terminology", "type": "Code List"}, "rootItem": {"href": "/mdr/root/ct/sdtmct/codelists/C101849", "title": "Version-agnostic anchor resource for codelist C101849", "type": "Root Value Domain"}, "self": {"href": "/mdr/ct/packages/sdtmct-2022-12-16/codelists/C101849", "title": "CDISC SDTM Coronary Artery Disease Risk Terminology", "type": "Code List"}}, "conceptId": "C101849", "definition": "A terminology codelist to describe the relative risk of coronary artery disease.", "extensible": "false", "name": "Coronary Artery Disease Risk", "preferredTerm": "CDISC SDTM Coronary Artery Disease Risk Terminology", "submissionValue": "CADRISK", "synonyms": ["Coronary Artery Disease Risk"], "terms": [{"conceptId": "C99955", "definition": "The likelihood an individual will develop coronary artery disease is almost certain or greater than 90%. (Gibbons RJ, Balady GJ, Bricker JT, Chaitman BR, Fletcher GF, Froelicher VF, Mark DB, McCallister BD, Mooss AN, O'Reilly MG, Winters WL Jr. ACC/AHA 2002 guideline update for exercise testing: a report of the American College of Cardiology/American Heart Association Task Force on Practice Guidelines (Committee on Exercise Testing). 2002. American College of Cardiology Web site. Available at: www.acc.org/clinical/guidelines/exercise/dirIndex.htm.)", "preferredTerm": "High Coronary Artery Disease Risk", "submissionValue": "HIGH CAD RISK", "synonyms": ["High Coronary Artery Disease Risk"]}, {"conceptId": "C99966", "definition": "The likelihood an individual will develop coronary artery disease (CAD) is moderate or between 10% and 90%. (Gibbons RJ, Balady GJ, Bricker JT, Chaitman BR, Fletcher GF, Froelicher VF, Mark DB, McCallister BD, Mooss AN, O'Reilly MG, Winters WL Jr. ACC/AHA 2002 guideline update for exercise testing: a report of the American College of Cardiology/American Heart Association Task Force on Practice Guidelines (Committee on Exercise Testing). 2002. American College of Cardiology Web site. Available at: www.acc.org/clinical/guidelines/exercise/dirIndex.htm.)", "preferredTerm": "Intermediate Coronary Artery Disease Risk", "submissionValue": "INTERMEDIATE CAD RISK", "synonyms": ["Intermediate Coronary Artery Disease Risk"]}, {"conceptId": "C99968", "definition": "The individual has coronary artery disease (CAD). (Gibbons RJ, Balady GJ, Bricker JT, Chaitman BR, Fletcher GF, Froelicher VF, Mark DB, McCallister BD, Mooss AN, O'Reilly MG, Winters WL Jr. ACC/AHA 2002 guideline update for exercise testing: a report of the American College of Cardiology/American Heart Association Task Force on Practice Guidelines (Committee on Exercise Testing). 2002. American College of Cardiology Web site. Available at: www.acc.org/clinical/guidelines/exercise/dirIndex.htm.)", "preferredTerm": "Known Coronary Artery Disease", "submissionValue": "KNOWN CAD", "synonyms": ["Known Coronary Artery Disease"]}, {"conceptId": "C99978", "definition": "The likelihood an individual will develop coronary artery disease (CAD) is minimal or less than10%.(Gibbons RJ, Balady GJ, Bricker JT, Chaitman BR, Fletcher GF, Froelicher VF, Mark DB, McCallister BD, Mooss AN, O'Reilly MG, Winters WL Jr. ACC/AHA 2002 guideline update for exercise testing: a report of the American College of Cardiology/American Heart Association Task Force on Practice Guidelines (Committee on Exercise Testing). 2002. American College of Cardiology Web site. Available at: www.acc.org/clinical/guidelines/exercise/dirIndex.htm.)", "preferredTerm": "Low Coronary Artery Disease Risk", "submissionValue": "LOW CAD RISK", "synonyms": ["Low Coronary Artery Disease Risk"]}]}