{"_links": {"parentPackage": {"href": "/mdr/ct/packages/sdtmct-2022-12-16", "title": "SDTM Controlled Terminology Package 52 Effective 2022-12-16", "type": "Terminology"}, "priorVersion": {"href": "/mdr/ct/packages/sdtmct-2022-09-30/codelists/C103465", "title": "CDISC Questionnaire FIQR Test Code Terminology", "type": "Code List"}, "rootItem": {"href": "/mdr/root/ct/sdtmct/codelists/C103465", "title": "Version-agnostic anchor resource for codelist C103465", "type": "Root Value Domain"}, "self": {"href": "/mdr/ct/packages/sdtmct-2022-12-16/codelists/C103465", "title": "CDISC Questionnaire FIQR Test Code Terminology", "type": "Code List"}}, "conceptId": "C103465", "definition": "Revised Fibromyalgia Impact Questionnaire test code.", "extensible": "false", "name": "Revised Fibromyalgia Impact Questionnaire Questionnaire Test Code", "preferredTerm": "CDISC Questionnaire FIQR Test Code Terminology", "submissionValue": "FIQR01TC", "synonyms": ["Revised Fibromyalgia Impact Questionnaire Questionnaire Test Code"], "terms": [{"conceptId": "C103544", "definition": "Revised Fibromyalgia Impact Questionnaire - Brush or comb your hair.", "preferredTerm": "FIQR - Brush or Comb Your Hair", "submissionValue": "FIQR0101", "synonyms": ["FIQR01-Brush or Comb Your Hair"]}, {"conceptId": "C103545", "definition": "Revised Fibromyalgia Impact Questionnaire - Walk continuously for 20 minutes.", "preferredTerm": "FIQR - Walk Continuously for 20 Minutes", "submissionValue": "FIQR0102", "synonyms": ["FIQR01-Walk Continuously for 20 Minutes"]}, {"conceptId": "C103546", "definition": "Revised Fibromyalgia Impact Questionnaire - Prepare a homemade meal.", "preferredTerm": "FIQR - Prepare a Homemade Meal", "submissionValue": "FIQR0103", "synonyms": ["FIQR01-Prepare a Homemade Meal"]}, {"conceptId": "C103547", "definition": "Revised Fibromyalgia Impact Questionnaire - Vacuum, scrub or sweep floors.", "preferredTerm": "FIQR - Vacuum Scrub or Sweep Floors", "submissionValue": "FIQR0104", "synonyms": ["FIQR01-Vacuum Scrub or Sweep Floors"]}, {"conceptId": "C103548", "definition": "Revised Fibromyalgia Impact Questionnaire - Lift and carry a bag full of groceries.", "preferredTerm": "FIQR - Lift and Carry a Bag Full of Groceries", "submissionValue": "FIQR0105", "synonyms": ["FIQR01-Lift/Carry Bag Full of Groceries"]}, {"conceptId": "C103549", "definition": "Revised Fibromyalgia Impact Questionnaire - Climb one flight of stairs.", "preferredTerm": "FIQR - Climb One Flight of Stairs", "submissionValue": "FIQR0106", "synonyms": ["FIQR01-Climb One Flight of Stairs"]}, {"conceptId": "C103550", "definition": "Revised Fibromyalgia Impact Questionnaire - Change bed sheets.", "preferredTerm": "FIQR - Change Bed Sheets", "submissionValue": "FIQR0107", "synonyms": ["FIQR01-Change Bed Sheets"]}, {"conceptId": "C103551", "definition": "Revised Fibromyalgia Impact Questionnaire - Sit in a chair for 45 minutes.", "preferredTerm": "FIQR - Sit in a Chair for 45 Minutes", "submissionValue": "FIQR0108", "synonyms": ["FIQR01-Sit in a Chair for 45 Minutes"]}, {"conceptId": "C103552", "definition": "Revised Fibromyalgia Impact Questionnaire - Go shopping for groceries.", "preferredTerm": "FIQR - Go Shopping for Groceries", "submissionValue": "FIQR0109", "synonyms": ["FIQR01-Go Shopping for Groceries"]}, {"conceptId": "C103553", "definition": "Revised Fibromyalgia Impact Questionnaire - Fibromyalgia prevented me from accomplishing goals for the week.", "preferredTerm": "FIQR - Fibromyalgia Prevented Me from Accomplishing Goals for the Week", "submissionValue": "FIQR0110", "synonyms": ["FIQR01-Fibromyalgia Prevented Goals"]}, {"conceptId": "C103554", "definition": "Revised Fibromyalgia Impact Questionnaire - I was completely overwhelmed by my fibromyalgia symptoms.", "preferredTerm": "FIQR - I was Completely Overwhelmed by My Fibromyalgia Symptoms", "submissionValue": "FIQR0111", "synonyms": ["FIQR01-Overwhelmed by Fibromyalgia"]}, {"conceptId": "C103555", "definition": "Revised Fibromyalgia Impact Questionnaire - Please rate your level of pain.", "preferredTerm": "FIQR - Pain", "submissionValue": "FIQR0112", "synonyms": ["FIQR01-Pain"]}, {"conceptId": "C103556", "definition": "Revised Fibromyalgia Impact Questionnaire - Please rate your level of energy.", "preferredTerm": "FIQR - Energy", "submissionValue": "FIQR0113", "synonyms": ["FIQR01-Energy"]}, {"conceptId": "C103557", "definition": "Revised Fibromyalgia Impact Questionnaire - Please rate your level of stiffness.", "preferredTerm": "FIQR - Stiffness", "submissionValue": "FIQR0114", "synonyms": ["FIQR01-Stiffness"]}, {"conceptId": "C103558", "definition": "Revised Fibromyalgia Impact Questionnaire - Please rate the quality of your sleep.", "preferredTerm": "FIQR - Your Sleep", "submissionValue": "FIQR0115", "synonyms": ["FIQR01-Your Sleep"]}, {"conceptId": "C103559", "definition": "Revised Fibromyalgia Impact Questionnaire - Please rate your level of depression.", "preferredTerm": "FIQR - Depression", "submissionValue": "FIQR0116", "synonyms": ["FIQR01-Depression"]}, {"conceptId": "C103560", "definition": "Revised Fibromyalgia Impact Questionnaire - Please rate your level of memory problems.", "preferredTerm": "FIQR - Memory Problems", "submissionValue": "FIQR0117", "synonyms": ["FIQR01-Memory Problems"]}, {"conceptId": "C103561", "definition": "Revised Fibromyalgia Impact Questionnaire - Please rate your level of anxiety.", "preferredTerm": "FIQR - Anxiety", "submissionValue": "FIQR0118", "synonyms": ["FIQR01-Anxiety"]}, {"conceptId": "C103562", "definition": "Revised Fibromyalgia Impact Questionnaire - Please rate your level of tenderness to touch.", "preferredTerm": "FIQR - Tenderness to Touch", "submissionValue": "FIQR0119", "synonyms": ["FIQR01-Tenderness to Touch"]}, {"conceptId": "C103563", "definition": "Revised Fibromyalgia Impact Questionnaire - Please rate your level of balance problems.", "preferredTerm": "FIQR - Balance Problems", "submissionValue": "FIQR0120", "synonyms": ["FIQR01-Balance Problems"]}, {"conceptId": "C103564", "definition": "Revised Fibromyalgia Impact Questionnaire - Please rate your level of sensitivity to loud noises, bright lights, odors and cold.", "preferredTerm": "FIQR - Sensitivity to Loud Noises, Bright Lights, Odors and Cold", "submissionValue": "FIQR0121", "synonyms": ["FIQR01-Sensitivity Noise/Light/Odor/Cold"]}, {"conceptId": "C118107", "definition": "Revised Fibromyalgia Impact Questionnaire - Sub-total for activities subcategory.", "preferredTerm": "FIQR - Activities Sub-Total", "submissionValue": "FIQR0122", "synonyms": ["FIQR01-Activities Sub-Total"]}, {"conceptId": "C118108", "definition": "Revised Fibromyalgia Impact Questionnaire - Sub-total for overall impact subcategory.", "preferredTerm": "FIQR - Overall Impact Sub-Total", "submissionValue": "FIQR0123", "synonyms": ["FIQR01-Overall Impact Sub-Total"]}, {"conceptId": "C118109", "definition": "Revised Fibromyalgia Impact Questionnaire - Sub-total for symptoms subcategory.", "preferredTerm": "FIQR - Symptoms Sub-Total", "submissionValue": "FIQR0124", "synonyms": ["FIQR01-Symptoms Sub-Total"]}, {"conceptId": "C118110", "definition": "Revised Fibromyalgia Impact Questionnaire - FIQR total.", "preferredTerm": "FIQR - FIQR Total", "submissionValue": "FIQR0125", "synonyms": ["FIQR01-FIQR Total"]}]}