{"_links": {"parentPackage": {"href": "/mdr/ct/packages/sdtmct-2022-12-16", "title": "SDTM Controlled Terminology Package 52 Effective 2022-12-16", "type": "Terminology"}, "priorVersion": {"href": "/mdr/ct/packages/sdtmct-2022-09-30/codelists/C105131", "title": "CDISC Questionnaire C-SSRS Baseline/Screening Version Phase 1 Study Version 1/14/09 Test Name Terminology", "type": "Code List"}, "rootItem": {"href": "/mdr/root/ct/sdtmct/codelists/C105131", "title": "Version-agnostic anchor resource for codelist C105131", "type": "Root Value Domain"}, "self": {"href": "/mdr/ct/packages/sdtmct-2022-12-16/codelists/C105131", "title": "CDISC Questionnaire C-SSRS Baseline/Screening Version Phase 1 Study Version 1/14/09 Test Name Terminology", "type": "Code List"}}, "conceptId": "C105131", "definition": "Columbia-Suicide Severity Rating Scale Baseline/Screening Version Phase 1 Study Version 1/14/2009 test name.", "extensible": "false", "name": "Columbia-Suicide Severity Rating Scale Baseline/Screening Version Phase 1 Study Questionnaire Test Name", "preferredTerm": "CDISC Questionnaire C-SSRS Baseline/Screening Version Phase 1 Study Version 1/14/09 Test Name Terminology", "submissionValue": "CSS03TN", "synonyms": ["Columbia-Suicide Severity Rating Scale Baseline/Screening Version Phase 1 Study Questionnaire Test Name"], "terms": [{"conceptId": "C105246", "definition": "Columbia-Suicide Severity Rating Scale Baseline/Screening Version Phase 1 Study - Has there been a time when you started to do something to try to end your life but you stopped yourself before you actually did anything?", "preferredTerm": "C-SSRS Baseline/Screening Version Phase 1 Study - Aborted Suicide Attempt", "submissionValue": "CSS03-Aborted Attempt", "synonyms": ["CSS03-Aborted Attempt"]}, {"conceptId": "C105248", "definition": "Columbia-Suicide Severity Rating Scale Baseline/Screening Version Phase 1 Study - Description of aborted attempt.", "preferredTerm": "C-SSRS Baseline/Screening Version Phase 1 Study - Description of Aborted Suicide Attempt", "submissionValue": "CSS03-Aborted Attempt, Describe", "synonyms": ["CSS03-Aborted Attempt, Describe"]}, {"conceptId": "C105239", "definition": "Columbia-Suicide Severity Rating Scale Baseline/Screening Version Phase 1 Study - Have you made a suicide attempt? Have you done anything to harm yourself? Have you done anything dangerous where you could have died?", "preferredTerm": "C-SSRS Baseline/Screening Version Phase 1 Study - Actual Suicide Attempt", "submissionValue": "CSS03-Actual Attempt", "synonyms": ["CSS03-Actual Attempt"]}, {"conceptId": "C105241", "definition": "Columbia-Suicide Severity Rating Scale Baseline/Screening Version Phase 1 Study - Description of actual attempt.", "preferredTerm": "C-SSRS Baseline/Screening Version Phase 1 Study - Description of Actual Suicide Attempt", "submissionValue": "CSS03-Actual Attempt, Describe", "synonyms": ["CSS03-Actual Attempt, Describe"]}, {"conceptId": "C105259", "definition": "Columbia-Suicide Severity Rating Scale Baseline/Screening Version Phase 1 Study - Initial/first attempt actual lethality/medical damage.", "preferredTerm": "C-SSRS Baseline/Screening Version Phase 1 Study - First Suicide Attempt Actual Lethality/Medical Damage", "submissionValue": "CSS03-First Attempt Damage", "synonyms": ["CSS03-First Attempt Damage"]}, {"conceptId": "C105258", "definition": "Columbia-Suicide Severity Rating Scale Baseline/Screening Version Phase 1 Study - Initial/first attempt date.", "preferredTerm": "C-SSRS Baseline/Screening Version Phase 1 Study - First Suicide Attempt Date", "submissionValue": "CSS03-First Attempt Date", "synonyms": ["CSS03-First Attempt Date"]}, {"conceptId": "C105260", "definition": "Columbia-Suicide Severity Rating Scale Baseline/Screening Version Phase 1 Study - Initial/first attempt potential lethality.", "preferredTerm": "C-SSRS Baseline/Screening Version Phase 1 Study - First Suicide Attempt Potential Lethality", "submissionValue": "CSS03-First Attempt Potential", "synonyms": ["CSS03-First Attempt Potential"]}, {"conceptId": "C105221", "definition": "Columbia-Suicide Severity Rating Scale Baseline/Screening Version Phase 1 Study - Description of active suicidal ideation with some intent to act, without specific plan.", "preferredTerm": "C-SSRS Baseline/Screening Version Phase 1 Study - Description of Active Suicidal Ideation with Some Intent to Act, without Specific Plan (Lifetime)", "submissionValue": "CSS03-Idea, Intent, No Plan, Describe", "synonyms": ["CSS03-Idea, Intent, No Plan, Describe"]}, {"conceptId": "C105219", "definition": "Columbia-Suicide Severity Rating Scale Baseline/Screening Version Phase 1 Study - Have you had these thoughts and had some intention of acting on them? (Lifetime).", "preferredTerm": "C-SSRS Baseline/Screening Version Phase 1 Study - Active Suicidal Ideation with Some Intent to Act, without Specific Plan (Lifetime)", "submissionValue": "CSS03-Idea, Intent, No Plan-Life", "synonyms": ["CSS03-Idea, Intent, No Plan-Life"]}, {"conceptId": "C105220", "definition": "Columbia-Suicide Severity Rating Scale Baseline/Screening Version Phase 1 Study - Have you had these thoughts and had some intention of acting on them? (Past 6 Months).", "preferredTerm": "C-SSRS Baseline/Screening Version Phase 1 Study - Active Suicidal Ideation with Some Intent to Act, without Specific Plan (Past 6 Months)", "submissionValue": "CSS03-Idea, Intent, No Plan-P6M", "synonyms": ["CSS03-Idea, Intent, No Plan-P6M"]}, {"conceptId": "C105218", "definition": "Columbia-Suicide Severity Rating Scale Baseline/Screening Version Phase 1 Study - Description of active suicidal ideation with any methods (not plan) without intent to act.", "preferredTerm": "C-SSRS Baseline/Screening Version Phase 1 Study - Description of Active Suicidal Ideation with Any Methods (Not Plan) without Intent to Act (Lifetime)", "submissionValue": "CSS03-Idea, No Intent, No Plan, Describe", "synonyms": ["CSS03-Idea, No Intent, No Plan, Describe"]}, {"conceptId": "C105216", "definition": "Columbia-Suicide Severity Rating Scale Baseline/Screening Version Phase 1 Study - Have you been thinking about how you might do this? (Lifetime).", "preferredTerm": "C-SSRS Baseline/Screening Version Phase 1 Study - Active Suicidal Ideation with Any Methods (Not Plan) without Intent to Act (Lifetime)", "submissionValue": "CSS03-Idea, No Intent, No Plan-Life", "synonyms": ["CSS03-Idea, No Intent, No Plan-Life"]}, {"conceptId": "C105217", "definition": "Columbia-Suicide Severity Rating Scale Baseline/Screening Version Phase 1 Study - Have you been thinking about how you might do this? (Past 6 Months).", "preferredTerm": "C-SSRS Baseline/Screening Version Phase 1 Study - Active Suicidal Ideation with Any Methods (Not Plan) without Intent to Act (Past 6 Months)", "submissionValue": "CSS03-Idea, No Intent, No Plan-P6M", "synonyms": ["CSS03-Idea, No Intent, No Plan-P6M"]}, {"conceptId": "C105224", "definition": "Columbia-Suicide Severity Rating Scale Baseline/Screening Version Phase 1 Study - Description of active suicidal ideation with specific plan and intent.", "preferredTerm": "C-SSRS Baseline/Screening Version Phase 1 Study - Description of Active Suicidal Ideation with Specific Plan and Intent (Lifetime)", "submissionValue": "CSS03-Idea, Plan, Intent, Describe", "synonyms": ["CSS03-Idea, Plan, Intent, Describe"]}, {"conceptId": "C105222", "definition": "Columbia-Suicide Severity Rating Scale Baseline/Screening Version Phase 1 Study - Have you started to work out or worked out the details of how to kill yourself? Do you intend to carry out this plan? (Lifetime).", "preferredTerm": "C-SSRS Baseline/Screening Version Phase 1 Study - Active Suicidal Ideation with Specific Plan and Intent (Lifetime)", "submissionValue": "CSS03-Idea, Plan, Intent-Life", "synonyms": ["CSS03-Idea, Plan, Intent-Life"]}, {"conceptId": "C105223", "definition": "Columbia-Suicide Severity Rating Scale Baseline/Screening Version Phase 1 Study - Have you started to work out or worked out the details of how to kill yourself? Do you intend to carry out this plan? (Past 6 Months).", "preferredTerm": "C-SSRS Baseline/Screening Version Phase 1 Study - Active Suicidal Ideation with Specific Plan and Intent (Past 6 Months)", "submissionValue": "CSS03-Idea, Plan, Intent-P6M", "synonyms": ["CSS03-Idea, Plan, Intent-P6M"]}, {"conceptId": "C105243", "definition": "Columbia-Suicide Severity Rating Scale Baseline/Screening Version Phase 1 Study - Has there been a time when you started to do something to try to end your life but someone or something stopped you before you actually did anything?", "preferredTerm": "C-SSRS Baseline/Screening Version Phase 1 Study - Interrupted Suicide Attempt", "submissionValue": "CSS03-Interrupted Attempt", "synonyms": ["CSS03-Interrupted Attempt"]}, {"conceptId": "C105245", "definition": "Columbia-Suicide Severity Rating Scale Baseline/Screening Version Phase 1 Study - Description of interrupted attempt.", "preferredTerm": "C-SSRS Baseline/Screening Version Phase 1 Study - Description of Interrupted Suicide Attempt", "submissionValue": "CSS03-Interrupted Attempt, Describe", "synonyms": ["CSS03-Interrupted Attempt, Describe"]}, {"conceptId": "C105256", "definition": "Columbia-Suicide Severity Rating Scale Baseline/Screening Version Phase 1 Study - Most lethal attempt actual lethality/medical damage.", "preferredTerm": "C-SSRS Baseline/Screening Version Phase 1 Study - Most Lethal Suicide Attempt Actual Lethality/Medical Damage", "submissionValue": "CSS03-Most Lethal Attempt Damage", "synonyms": ["CSS03-Most Lethal Attempt Damage"]}, {"conceptId": "C105255", "definition": "Columbia-Suicide Severity Rating Scale Baseline/Screening Version Phase 1 Study - Most lethal attempt date.", "preferredTerm": "C-SSRS Baseline/Screening Version Phase 1 Study - Most Lethal Suicide Attempt Date", "submissionValue": "CSS03-Most Lethal Attempt Date", "synonyms": ["CSS03-Most Lethal Attempt Date"]}, {"conceptId": "C105257", "definition": "Columbia-Suicide Severity Rating Scale Baseline/Screening Version Phase 1 Study - Most lethal attempt potential lethality.", "preferredTerm": "C-SSRS Baseline/Screening Version Phase 1 Study - Most Lethal Suicide Attempt Potential Lethality", "submissionValue": "CSS03-Most Lethal Attempt Potential", "synonyms": ["CSS03-Most Lethal Attempt Potential"]}, {"conceptId": "C105253", "definition": "Columbia-Suicide Severity Rating Scale Baseline/Screening Version Phase 1 Study - Most recent attempt actual lethality/medical damage.", "preferredTerm": "C-SSRS Baseline/Screening Version Phase 1 Study - Most Recent Suicide Attempt Actual Lethality/Medical Damage", "submissionValue": "CSS03-Most Recent Attempt Damage", "synonyms": ["CSS03-Most Recent Attempt Damage"]}, {"conceptId": "C105252", "definition": "Columbia-Suicide Severity Rating Scale Baseline/Screening Version Phase 1 Study - Most recent attempt date.", "preferredTerm": "C-SSRS Baseline/Screening Version Phase 1 Study - Most Recent Suicide Attempt Date", "submissionValue": "CSS03-Most Recent Attempt Date", "synonyms": ["CSS03-Most Recent Attempt Date"]}, {"conceptId": "C105254", "definition": "Columbia-Suicide Severity Rating Scale Baseline/Screening Version Phase 1 Study - Most recent attempt potential lethality.", "preferredTerm": "C-SSRS Baseline/Screening Version Phase 1 Study - Most Recent Suicide Attempt Potential Lethality", "submissionValue": "CSS03-Most Recent Attempt Potential", "synonyms": ["CSS03-Most Recent Attempt Potential"]}, {"conceptId": "C105233", "definition": "Columbia-Suicide Severity Rating Scale Baseline/Screening Version Phase 1 Study - Could/can you stop thinking about killing yourself or wanting to die if you want to? (Lifetime).", "preferredTerm": "C-SSRS Baseline/Screening Version Phase 1 Study - Controllability of Most Severe Ideation (Lifetime)", "submissionValue": "CSS03-Most Severe Idea, Control-Life", "synonyms": ["CSS03-Most Severe Idea, Control-Life"]}, {"conceptId": "C105234", "definition": "Columbia-Suicide Severity Rating Scale Baseline/Screening Version Phase 1 Study - Could/can you stop thinking about killing yourself or wanting to die if you want to? (Past 6 Months).", "preferredTerm": "C-SSRS Baseline/Screening Version Phase 1 Study - Controllability of Most Severe Ideation (Past 6 Months)", "submissionValue": "CSS03-Most Severe Idea, Control-P6M", "synonyms": ["CSS03-Most Severe Idea, Control-P6M"]}, {"conceptId": "C105226", "definition": "Columbia-Suicide Severity Rating Scale Baseline/Screening Version Phase 1 Study - Description of most severe ideation. (Lifetime).", "preferredTerm": "C-SSRS Baseline/Screening Version Phase 1 Study - Describe Most Severe Ideation (Lifetime)", "submissionValue": "CSS03-Most Severe Idea, Desc-Life", "synonyms": ["CSS03-Most Severe Idea, Desc-Life"]}, {"conceptId": "C105228", "definition": "Columbia-Suicide Severity Rating Scale Baseline/Screening Version Phase 1 Study - Description of most severe ideation. (Past 6 Months).", "preferredTerm": "C-SSRS Baseline/Screening Version Phase 1 Study - Describe Most Severe Ideation (Past 6 Months)", "submissionValue": "CSS03-Most Severe Idea, Desc-P6M", "synonyms": ["CSS03-Most Severe Idea, Desc-P6M"]}, {"conceptId": "C105235", "definition": "Columbia-Suicide Severity Rating Scale Baseline/Screening Version Phase 1 Study - Are there things-anyone or anything (e.g., family, religion, pain of death) - that stopped you from wanting to die or acting on thoughts of committing suicide? (Lifetime).", "preferredTerm": "C-SSRS Baseline/Screening Version Phase 1 Study - Deterrents to Most Severe Ideation (Lifetime)", "submissionValue": "CSS03-Most Severe Idea, Deterrents-Life", "synonyms": ["CSS03-Most Severe Idea, Deterrents-Life"]}, {"conceptId": "C105236", "definition": "Columbia-Suicide Severity Rating Scale Baseline/Screening Version Phase 1 Study - Are there things-anyone or anything (e.g., family, religion, pain of death) - that stopped you from wanting to die or acting on thoughts of committing suicide? (Past 6 Months).", "preferredTerm": "C-SSRS Baseline/Screening Version Phase 1 Study - Deterrents to Most Severe Ideation (Past 6 Months)", "submissionValue": "CSS03-Most Severe Idea, Deterrents-P6M", "synonyms": ["CSS03-Most Severe Idea, Deterrents-P6M"]}, {"conceptId": "C105231", "definition": "Columbia-Suicide Severity Rating Scale Baseline/Screening Version Phase 1 Study - When you have the thoughts how long do they last? (Lifetime).", "preferredTerm": "C-SSRS Baseline/Screening Version Phase 1 Study - Duration of Most Severe Ideation (Lifetime)", "submissionValue": "CSS03-Most Severe Idea, Duration-Life", "synonyms": ["CSS03-Most Severe Idea, Duration-Life"]}, {"conceptId": "C105232", "definition": "Columbia-Suicide Severity Rating Scale Baseline/Screening Version Phase 1 Study - When you have the thoughts how long do they last? (Past 6 Months).", "preferredTerm": "C-SSRS Baseline/Screening Version Phase 1 Study - Duration of Most Severe Ideation (Past 6 Months)", "submissionValue": "CSS03-Most Severe Idea, Duration-P6M", "synonyms": ["CSS03-Most Severe Idea, Duration-P6M"]}, {"conceptId": "C105229", "definition": "Columbia-Suicide Severity Rating Scale Baseline/Screening Version Phase 1 Study - How many times have you had these thoughts? (Lifetime).", "preferredTerm": "C-SSRS Baseline/Screening Version Phase 1 Study - Frequency of Most Severe Ideation (Lifetime)", "submissionValue": "CSS03-Most Severe Idea, Frequency-Life", "synonyms": ["CSS03-Most Severe Idea, Frequency-Life"]}, {"conceptId": "C105230", "definition": "Columbia-Suicide Severity Rating Scale Baseline/Screening Version Phase 1 Study - How many times have you had these thoughts? (Past 6 Months).", "preferredTerm": "C-SSRS Baseline/Screening Version Phase 1 Study - Frequency of Most Severe Ideation (Past 6 Months)", "submissionValue": "CSS03-Most Severe Idea, Frequency-P6M", "synonyms": ["CSS03-Most Severe Idea, Frequency-P6M"]}, {"conceptId": "C105237", "definition": "Columbia-Suicide Severity Rating Scale Baseline/Screening Version Phase 1 Study - What sort of reasons did you have for thinking about wanting to die or killing yourself? Was it to end the pain or stop the way you were feeling (in other words you couldn't go on living with this pain or how you were feeling) or was it to get attention, revenge or a reaction from others? Or both? (Lifetime).", "preferredTerm": "C-SSRS Baseline/Screening Version Phase 1 Study - Reasons for Most Severe Ideation (Lifetime)", "submissionValue": "CSS03-Most Severe Idea, Reasons-Life", "synonyms": ["CSS03-Most Severe Idea, Reasons-Life"]}, {"conceptId": "C105238", "definition": "Columbia-Suicide Severity Rating Scale Baseline/Screening Version Phase 1 Study - What sort of reasons did you have for thinking about wanting to die or killing yourself? Was it to end the pain or stop the way you were feeling (in other words you couldn't go on living with this pain or how you were feeling) or was it to get attention, revenge or a reaction from others? Or both? (Past 6 Months).", "preferredTerm": "C-SSRS Baseline/Screening Version Phase 1 Study - Reasons for Most Severe Ideation (Past 6 Months)", "submissionValue": "CSS03-Most Severe Idea, Reasons-P6M", "synonyms": ["CSS03-Most Severe Idea, Reasons-P6M"]}, {"conceptId": "C105225", "definition": "Columbia-Suicide Severity Rating Scale Baseline/Screening Version Phase 1 Study - Most severe ideation. (Lifetime).", "preferredTerm": "C-SSRS Baseline/Screening Version Phase 1 Study - Most Severe Ideation (Lifetime)", "submissionValue": "CSS03-Most Severe Idea-Life", "synonyms": ["CSS03-Most Severe Idea-Life"]}, {"conceptId": "C105227", "definition": "Columbia-Suicide Severity Rating Scale Baseline/Screening Version Phase 1 Study - Most severe ideation. (Past 6 Months).", "preferredTerm": "C-SSRS Baseline/Screening Version Phase 1 Study - Most Severe Ideation (Past 6 Months)", "submissionValue": "CSS03-Most Severe Idea-P6M", "synonyms": ["CSS03-Most Severe Idea-P6M"]}, {"conceptId": "C105215", "definition": "Columbia-Suicide Severity Rating Scale Baseline/Screening Version Phase 1 Study - Description of non-specific active suicidal thoughts.", "preferredTerm": "C-SSRS Baseline/Screening Version Phase 1 Study - Description of Non-Specific Active Suicidal Thoughts (Lifetime)", "submissionValue": "CSS03-Non-Spec Suicid Thought, Describe", "synonyms": ["CSS03-Non-Spec Suicid Thought, Describe"]}, {"conceptId": "C105213", "definition": "Columbia-Suicide Severity Rating Scale Baseline/Screening Version Phase 1 Study - Have you actually had any thoughts of killing yourself? (Lifetime).", "preferredTerm": "C-SSRS Baseline/Screening Version Phase 1 Study - Non-Specific Active Suicidal Thoughts (Lifetime)", "submissionValue": "CSS03-Non-Spec Suicid Thought-Life", "synonyms": ["CSS03-Non-Spec Suicid Thought-Life"]}, {"conceptId": "C105214", "definition": "Columbia-Suicide Severity Rating Scale Baseline/Screening Version Phase 1 Study - Have you actually had any thoughts of killing yourself? (Past 6 Months).", "preferredTerm": "C-SSRS Baseline/Screening Version Phase 1 Study - Non-Specific Active Suicidal Thoughts (Past 6 Months)", "submissionValue": "CSS03-Non-Spec Suicid Thought-P6M", "synonyms": ["CSS03-Non-Spec Suicid Thought-P6M"]}, {"conceptId": "C105242", "definition": "Columbia-Suicide Severity Rating Scale Baseline/Screening Version Phase 1 Study - Has the subject engaged in non-suicidal self-injurious behavior.", "preferredTerm": "C-SSRS Baseline/Screening Version Phase 1 Study - Non-suicidal Self-injurious Behavior", "submissionValue": "CSS03-Non-suicidal Self-injurious Behav", "synonyms": ["CSS03-Non-suicidal Self-injurious Behav"]}, {"conceptId": "C105247", "definition": "Columbia-Suicide Severity Rating Scale Baseline/Screening Version Phase 1 Study - Total number of aborted attempts.", "preferredTerm": "C-SSRS Baseline/Screening Version Phase 1 Study - Number of Aborted Suicide Attempts", "submissionValue": "CSS03-Number of Aborted Attempts", "synonyms": ["CSS03-Number of Aborted Attempts"]}, {"conceptId": "C105240", "definition": "Columbia-Suicide Severity Rating Scale Baseline/Screening Version Phase 1 Study - Total number of actual attempts.", "preferredTerm": "C-SSRS Baseline/Screening Version Phase 1 Study - Number of Actual Suicide Attempts", "submissionValue": "CSS03-Number of Actual Attempts", "synonyms": ["CSS03-Number of Actual Attempts"]}, {"conceptId": "C105244", "definition": "Columbia-Suicide Severity Rating Scale Baseline/Screening Version Phase 1 Study - Total number of interrupted attempts.", "preferredTerm": "C-SSRS Baseline/Screening Version Phase 1 Study - Number of Interrupted Suicide Attempts", "submissionValue": "CSS03-Number of Interrupted Attempts", "synonyms": ["CSS03-Number of Interrupted Attempts"]}, {"conceptId": "C105249", "definition": "Columbia-Suicide Severity Rating Scale Baseline/Screening Version Phase 1 Study - Have you taken any steps towards making a suicide attempt or preparing to kill yourself (such as collecting pills, getting a gun, giving valuables away or writing a suicide note)?", "preferredTerm": "C-SSRS Baseline/Screening Version Phase 1 Study - Preparatory Acts or Behaviors Toward Suicide Attempt", "submissionValue": "CSS03-Preparatory Acts/Behavior", "synonyms": ["CSS03-Preparatory Acts/Behavior"]}, {"conceptId": "C105250", "definition": "Columbia-Suicide Severity Rating Scale Baseline/Screening Version Phase 1 Study - Description of preparatory acts or behavior.", "preferredTerm": "C-SSRS Baseline/Screening Version Phase 1 Study - Description of Preparatory Acts or Behaviors Toward Suicide Attempt", "submissionValue": "CSS03-Preparatory Acts/Behavior, Descr", "synonyms": ["CSS03-Preparatory Acts/Behavior, Descr"]}, {"conceptId": "C105251", "definition": "Columbia-Suicide Severity Rating Scale Baseline/Screening Version Phase 1 Study - Suicidal behavior was present during the assessment period?", "preferredTerm": "C-SSRS Baseline/Screening Version Phase 1 Study - Suicidal Behavior", "submissionValue": "CSS03-Suicidal Behavior", "synonyms": ["CSS03-Suicidal Behavior"]}, {"conceptId": "C105212", "definition": "Columbia-Suicide Severity Rating Scale Baseline/Screening Version Phase 1 Study - Description of wishing to be dead.", "preferredTerm": "C-SSRS Baseline/Screening Version Phase 1 Study - Description of Wish to be Dead (Lifetime)", "submissionValue": "CSS03-Wish to be Dead, Describe", "synonyms": ["CSS03-Wish to be Dead, Describe"]}, {"conceptId": "C105210", "definition": "Columbia-Suicide Severity Rating Scale Baseline/Screening Version Phase 1 Study - Have you wished you were dead or wished you could go to sleep and not wake up? (Lifetime).", "preferredTerm": "C-SSRS Baseline/Screening Version Phase 1 Study - Wish to be Dead (Lifetime)", "submissionValue": "CSS03-Wish to be Dead-Life", "synonyms": ["CSS03-Wish to be Dead-Life"]}, {"conceptId": "C105211", "definition": "Columbia-Suicide Severity Rating Scale Baseline/Screening Version Phase 1 Study - Have you wished you were dead or wished you could go to sleep and not wake up? (Past 6 Months).", "preferredTerm": "C-SSRS Baseline/Screening Version Phase 1 Study - Wish to be Dead (Past 6 Months)", "submissionValue": "CSS03-Wish to be Dead-P6M", "synonyms": ["CSS03-Wish to be Dead-P6M"]}]}