{"_links": {"parentPackage": {"href": "/mdr/ct/packages/sdtmct-2022-12-16", "title": "SDTM Controlled Terminology Package 52 Effective 2022-12-16", "type": "Terminology"}, "priorVersion": {"href": "/mdr/ct/packages/sdtmct-2022-09-30/codelists/C112445", "title": "CDISC Questionnaire MHIS-NACC Test Code Terminology", "type": "Code List"}, "rootItem": {"href": "/mdr/root/ct/sdtmct/codelists/C112445", "title": "Version-agnostic anchor resource for codelist C112445", "type": "Root Value Domain"}, "self": {"href": "/mdr/ct/packages/sdtmct-2022-12-16/codelists/C112445", "title": "CDISC Questionnaire MHIS-NACC Test Code Terminology", "type": "Code List"}}, "conceptId": "C112445", "definition": "Modified Hachinski Ischemic Scale-NACC Version test code.", "extensible": "false", "name": "Modified Hachinski Ischemic Scale-NACC Version Questionnaire Test Code", "preferredTerm": "CDISC Questionnaire MHIS-NACC Test Code Terminology", "submissionValue": "MHIS01TC", "synonyms": ["Modified Hachinski Ischemic Scale-NACC Version Questionnaire Test Code"], "terms": [{"conceptId": "C112618", "definition": "Modified Hachinski Ischemic Scale-NACC Version - Abrupt onset (re: cognitive status).", "preferredTerm": "MHIS-NACC - Abrupt Onset", "submissionValue": "MHIS0101", "synonyms": ["MHIS01-Abrupt Onset"]}, {"conceptId": "C112619", "definition": "Modified Hachinski Ischemic Scale-NACC Version - Stepwise deterioration (re: cognitive status).", "preferredTerm": "MHIS-NACC - Stepwise Deterioration", "submissionValue": "MHIS0102", "synonyms": ["MHIS01-Stepwise Deterioration"]}, {"conceptId": "C112813", "definition": "Modified Hachinski Ischemic Scale-NACC Version - Somatic complaints.", "preferredTerm": "MHIS-NACC - Somatic Complaints", "submissionValue": "MHIS0103", "synonyms": ["MHIS01- Somatic Complaints"]}, {"conceptId": "C112620", "definition": "Modified Hachinski Ischemic Scale-NACC Version - Emotional incontinence.", "preferredTerm": "MHIS-NACC - Emotional Incontinence", "submissionValue": "MHIS0104", "synonyms": ["MHIS01-Emotional Incontinence"]}, {"conceptId": "C112621", "definition": "Modified Hachinski Ischemic Scale-NACC Version - History or presence of hypertension.", "preferredTerm": "MHIS-NACC - History or Presence of Hypertension", "submissionValue": "MHIS0105", "synonyms": ["MHIS01-History or Presence Hypertension"]}, {"conceptId": "C112622", "definition": "Modified Hachinski Ischemic Scale-NACC Version - History of stroke.", "preferredTerm": "MHIS-NACC - History of Stroke", "submissionValue": "MHIS0106", "synonyms": ["MHIS01-History of Stroke"]}, {"conceptId": "C112623", "definition": "Modified Hachinski Ischemic Scale-NACC Version - Focal neurological symptoms.", "preferredTerm": "MHIS-NACC - Focal Neurological Symptoms", "submissionValue": "MHIS0107", "synonyms": ["MHIS01-Focal Neurological Symptoms"]}, {"conceptId": "C112624", "definition": "Modified Hachinski Ischemic Scale-NACC Version - Focal neurological signs.", "preferredTerm": "MHIS-NACC - Focal Neurological Signs", "submissionValue": "MHIS0108", "synonyms": ["MHIS01-Focal Neurological Signs"]}, {"conceptId": "C112625", "definition": "Modified Hachinski Ischemic Scale-NACC Version - Sum all circled answers for a total score.", "preferredTerm": "MHIS-NACC - Total Score", "submissionValue": "MHIS0109", "synonyms": ["MHIS01-Total Score"]}]}