{"_links": {"parentPackage": {"href": "/mdr/ct/packages/sdtmct-2022-12-16", "title": "SDTM Controlled Terminology Package 52 Effective 2022-12-16", "type": "Terminology"}, "priorVersion": {"href": "/mdr/ct/packages/sdtmct-2022-09-30/codelists/C119019", "title": "CDISC SDTM ARC Coronary Stent Thrombosis Timing Terminology", "type": "Code List"}, "rootItem": {"href": "/mdr/root/ct/sdtmct/codelists/C119019", "title": "Version-agnostic anchor resource for codelist C119019", "type": "Root Value Domain"}, "self": {"href": "/mdr/ct/packages/sdtmct-2022-12-16/codelists/C119019", "title": "CDISC SDTM ARC Coronary Stent Thrombosis Timing Terminology", "type": "Code List"}}, "conceptId": "C119019", "definition": "A terminology codelist relevant to the Academic Research Council grade for the timing of the stent thrombosis after stent implantation.", "extensible": "false", "name": "Stent Thrombosis, Coronary, ARC Timing Responses", "preferredTerm": "CDISC SDTM ARC Coronary Stent Thrombosis Timing Terminology", "submissionValue": "STCTIMRS", "synonyms": ["Stent Thrombosis, Coronary, ARC Timing Responses"], "terms": [{"conceptId": "C119594", "definition": "0 to 24 hours after stent implantation. (Cutlip DE, Windecker S, Mehran R, et al. Clinical Endpoints in Coronary Stent Trials : A Case for Standardized Definitions. Circulation. 2007;115:2344-2351)", "preferredTerm": "ARC Stent Thrombosis Timing Acute", "submissionValue": "STENT THROMBOSIS ARC ACUTE"}, {"conceptId": "C119596", "definition": "Greater than 30 days to 1 year after stent implantation. (Cutlip DE, Windecker S, Mehran R, et al. Clinical Endpoints in Coronary Stent Trials : A Case for Standardized Definitions. Circulation. 2007;115:2344-2351)", "preferredTerm": "ARC Stent Thrombosis Timing Late", "submissionValue": "STENT THROMBOSIS ARC LATE"}, {"conceptId": "C119595", "definition": "Greater than 24 hours to 30 days after stent implantation. (Cutlip DE, Windecker S, Mehran R, et al. Clinical Endpoints in Coronary Stent Trials : A Case for Standardized Definitions. Circulation. 2007;115:2344-2351)", "preferredTerm": "ARC Stent Thrombosis Timing Subacute", "submissionValue": "STENT THROMBOSIS ARC SUBACUTE"}, {"conceptId": "C119597", "definition": "Greater than 1 year after stent implantation. (Cutlip DE, Windecker S, Mehran R, et al. Clinical Endpoints in Coronary Stent Trials : A Case for Standardized Definitions. Circulation. 2007;115:2344-2351)", "preferredTerm": "ARC Stent Thrombosis Timing Very Late", "submissionValue": "STENT THROMBOSIS ARC VERY LATE"}]}