{"_links": {"parentPackage": {"href": "/mdr/ct/packages/sdtmct-2022-12-16", "title": "SDTM Controlled Terminology Package 52 Effective 2022-12-16", "type": "Terminology"}, "priorVersion": {"href": "/mdr/ct/packages/sdtmct-2022-09-30/codelists/C124673", "title": "CDISC Clinical Classification WHO Clinical Staging of HIV/AIDS for Adults and Adolescents Test Name Terminology", "type": "Code List"}, "rootItem": {"href": "/mdr/root/ct/sdtmct/codelists/C124673", "title": "Version-agnostic anchor resource for codelist C124673", "type": "Root Value Domain"}, "self": {"href": "/mdr/ct/packages/sdtmct-2022-12-16/codelists/C124673", "title": "CDISC Clinical Classification WHO Clinical Staging of HIV/AIDS for Adults and Adolescents Test Name Terminology", "type": "Code List"}}, "conceptId": "C124673", "definition": "WHO Clinical Staging of HIV/AIDS for Adults and Adolescents test name.", "extensible": "false", "name": "WHO Clinical Staging of HIV/AIDS for Adults and Adolescents Clinical Classification Test Name", "preferredTerm": "CDISC Clinical Classification WHO Clinical Staging of HIV/AIDS for Adults and Adolescents Test Name Terminology", "submissionValue": "WHIVS1TN", "synonyms": ["WHO Clinical Staging of HIV/AIDS for Adults and Adolescents Clinical Classification Test Name"], "terms": [{"conceptId": "C124777", "definition": "WHO Clinical Staging of HIV/AIDS for Adults and Adolescents - WHO clinical stage of HIV/AIDS.", "preferredTerm": "WHO Clinical Staging of HIV/AIDS for Adults and Adolescents - WHO Clinical Stage of HIV/AIDS", "submissionValue": "WHIVS1-WHO Clinical Stage of HIV/AIDS", "synonyms": ["WHIVS1-WHO Clinical Stage of HIV/AIDS"]}]}