{"_links": {"parentPackage": {"href": "/mdr/ct/packages/sdtmct-2022-12-16", "title": "SDTM Controlled Terminology Package 52 Effective 2022-12-16", "type": "Terminology"}, "priorVersion": {"href": "/mdr/ct/packages/sdtmct-2022-09-30/codelists/C127263", "title": "CDISC SDTM Case Finding Terminology", "type": "Code List"}, "rootItem": {"href": "/mdr/root/ct/sdtmct/codelists/C127263", "title": "Version-agnostic anchor resource for codelist C127263", "type": "Root Value Domain"}, "self": {"href": "/mdr/ct/packages/sdtmct-2022-12-16/codelists/C127263", "title": "CDISC SDTM Case Finding Terminology", "type": "Code List"}}, "conceptId": "C127263", "definition": "Terminology relevant to how actively a search was performed for identifying individuals with a particular disease.", "extensible": "true", "name": "Case Finding", "preferredTerm": "CDISC SDTM Case Finding Terminology", "submissionValue": "CASEFIND", "synonyms": ["Case Finding"], "terms": [{"conceptId": "C127515", "definition": "Purposefully looking for subjects with a particular characteristic or disease.", "preferredTerm": "Active Case Search", "submissionValue": "ACTIVE CASE SEARCH"}, {"conceptId": "C127516", "definition": "Finding subjects with a particular characteristic or disease without actively searching.", "preferredTerm": "Passive Case Search", "submissionValue": "PASSIVE CASE SEARCH"}]}