{"_links": {"parentPackage": {"href": "/mdr/ct/packages/sdtmct-2022-12-16", "title": "SDTM Controlled Terminology Package 52 Effective 2022-12-16", "type": "Terminology"}, "priorVersion": {"href": "/mdr/ct/packages/sdtmct-2022-09-30/codelists/C127270", "title": "CDISC SDTM Musculoskeletal System Finding Test Name Terminology", "type": "Code List"}, "rootItem": {"href": "/mdr/root/ct/sdtmct/codelists/C127270", "title": "Version-agnostic anchor resource for codelist C127270", "type": "Root Value Domain"}, "self": {"href": "/mdr/ct/packages/sdtmct-2022-12-16/codelists/C127270", "title": "CDISC SDTM Musculoskeletal System Finding Test Name Terminology", "type": "Code List"}}, "conceptId": "C127270", "definition": "A terminology codelist to describe the test name for a physiological examination of the musculoskeletal system.", "extensible": "true", "name": "Musculoskeletal System Finding Test Name", "preferredTerm": "CDISC SDTM Musculoskeletal System Finding Test Name Terminology", "submissionValue": "MUSCTS", "synonyms": ["Musculoskeletal System Finding Test Name"], "terms": [{"conceptId": "C191306", "definition": "A measurement of the angle between the line from the center of the femoral head to the center of the femoral neck at its narrowest point and the line from the center of the femoral head to a point where the distance from the bone to the center of the head is greater than the radius of the cartilage-covered femoral head.", "preferredTerm": "Alpha Angle of the Hip", "submissionValue": "Alpha Angle", "synonyms": ["Alpha Angle", "Alpha Angle of the Hip"]}, {"conceptId": "C178018", "definition": "A measurement of the mass of the muscles of the arms and legs.", "preferredTerm": "Appendicular Skeletal Muscle Mass", "submissionValue": "Appendicular Skeletal Muscle Mass", "synonyms": ["Appendicular Skeletal Muscle Mass", "ASMM"]}, {"conceptId": "C25244", "definition": "The extent of a 2-dimensional surface enclosed within a boundary. (NCI)", "preferredTerm": "Area", "submissionValue": "Area", "synonyms": ["Area"]}, {"conceptId": "C191307", "definition": "A measurement of the angle formed by the cartilaginous roof to the vertical cortex of the ilium.", "preferredTerm": "Beta Angle of the Hip", "submissionValue": "Beta Angle", "synonyms": ["Beta Angle", "Beta Angle of the Hip"]}, {"conceptId": "C139218", "definition": "The amount of an individual's total body mass that is fat, expressed as a percent.", "preferredTerm": "Body Fat Percentage", "submissionValue": "Body Fat Percentage", "synonyms": ["Body Fat Percentage"]}, {"conceptId": "C147472", "definition": "An assessment of the quantity of minerals within a specific bone(s) or segments.", "preferredTerm": "Bone Mineral Content", "submissionValue": "Bone Mineral Content", "synonyms": ["Bone Mass", "Bone Mineral Content", "Bone Mineral Mass"]}, {"conceptId": "C147473", "definition": "The standard deviation of the subject's bone mineral density score in comparison to the normal bone mineral density of a healthy 30-year old adult.", "preferredTerm": "Bone Mineral Density T-Score", "submissionValue": "Bone Mineral Density T-Score", "synonyms": ["Bone Mineral Density T-Score"]}, {"conceptId": "C139217", "definition": "A statistical score representing the number of standard deviations above or below what is expected for an individual's bone mineral density based on his age, sex, weight, and race.", "preferredTerm": "Bone Mineral Density Z-Score", "submissionValue": "Bone Mineral Density Z-Score", "synonyms": ["Bone Mineral Density Z-Score"]}, {"conceptId": "C61545", "definition": "A measurement of the amount of minerals contained in a specified volume or area of bone(s) or segments.", "preferredTerm": "Bone Mineral Density Test", "submissionValue": "Bone Mineral Density", "synonyms": ["Bone Mineral Density"]}, {"conceptId": "C139223", "definition": "The numerical value that represents the result of a clinical assessment of muscle strength and function during abduction that is based on the Brooke Modified Medical Research Council Manual Muscle Test. (Brooke MH, Griggs RC, Mendell JR, Fenichel GM, et al. Clinical trial in Duchenne dystrophy. I. The design of the protocol. Muscle Nerve. 1981 May-Jun;4(3):186-97. doi:10.1002/mus.880040304).", "preferredTerm": "Brooke Modified Medical Research Council Manual Muscle Test Score, Abduction", "submissionValue": "Brooke mMRC MMT Score, Abduction", "synonyms": ["Brooke mMRC MMT Score, Abduction", "Brooke Modified Medical Research Council Manual Muscle Test Score, Abduction"]}, {"conceptId": "C139225", "definition": "The numerical value that represents the result of a clinical assessment of muscle strength and function during dorsiflexion that is based on the Brooke Modified Medical Research Council Manual Muscle Test. (Brooke MH, Griggs RC, Mendell JR, Fenichel GM, et al. Clinical trial in Duchenne dystrophy. I. The design of the protocol. Muscle Nerve. 1981 May-Jun;4(3):186-97. doi:10.1002/mus.880040304).", "preferredTerm": "Brooke Modified Medical Research Council Manual Muscle Test Score, Dorsiflexion", "submissionValue": "Brooke mMRC MMT Score, Dorsiflexion", "synonyms": ["Brooke mMRC MMT Score, Dorsiflexion", "Brooke Modified Medical Research Council Manual Muscle Test Score, Dorsiflexion"]}, {"conceptId": "C139227", "definition": "The numerical value that represents the result of a clinical assessment of muscle strength and function during eversion that is based on the Brooke Modified Medical Research Council Manual Muscle Test. (Brooke MH, Griggs RC, Mendell JR, Fenichel GM, et al. Clinical trial in Duchenne dystrophy. I. The design of the protocol. Muscle Nerve. 1981 May-Jun;4(3):186-97. doi:10.1002/mus.880040304).", "preferredTerm": "Brooke Modified Medical Research Council Manual Muscle Test Score, Eversion", "submissionValue": "Brooke mMRC MMT Score, Eversion", "synonyms": ["Brooke mMRC MMT Score, Eversion", "Brooke Modified Medical Research Council Manual Muscle Test Score, Eversion"]}, {"conceptId": "C139220", "definition": "The numerical value that represents the result of a clinical assessment of muscle strength and function during extension that is based on the Brooke Modified Medical Research Council Manual Muscle Test. (Brooke MH, Griggs RC, Mendell JR, Fenichel GM, et al. Clinical trial in Duchenne dystrophy. I. The design of the protocol. Muscle Nerve. 1981 May-Jun;4(3):186-97. doi:10.1002/mus.880040304).", "preferredTerm": "Brooke Modified Medical Research Council Manual Muscle Test Score, Extension", "submissionValue": "Brooke mMRC MMT Score, Extension", "synonyms": ["Brooke mMRC MMT Score, Extension", "Brooke Modified Medical Research Council Manual Muscle Test Score, Extension"]}, {"conceptId": "C139222", "definition": "The numerical value that represents the result of a clinical assessment of muscle strength and function during flexion that is based on the Brooke Modified Medical Research Council Manual Muscle Test. (Brooke MH, Griggs RC, Mendell JR, Fenichel GM, et al. Clinical trial in Duchenne dystrophy. I. The design of the protocol. Muscle Nerve. 1981 May-Jun;4(3):186-97. doi:10.1002/mus.880040304).", "preferredTerm": "Brooke Modified Medical Research Council Manual Muscle Test Score, Flexion", "submissionValue": "Brooke mMRC MMT Score, Flexion", "synonyms": ["Brooke mMRC MMT Score, Flexion", "Brooke Modified Medical Research Council Manual Muscle Test Score, Flexion"]}, {"conceptId": "C139226", "definition": "The numerical value that represents the result of a clinical assessment of muscle strength and function during inversion that is based on the Brooke Modified Medical Research Council Manual Muscle Test. (Brooke MH, Griggs RC, Mendell JR, Fenichel GM, et al. Clinical trial in Duchenne dystrophy. I. The design of the protocol. Muscle Nerve. 1981 May-Jun;4(3):186-97. doi:10.1002/mus.880040304).", "preferredTerm": "Brooke Modified Medical Research Council Manual Muscle Test Score, Inversion", "submissionValue": "Brooke mMRC MMT Score, Inversion", "synonyms": ["Brooke mMRC MMT Score, Inversion", "Brooke Modified Medical Research Council Manual Muscle Test Score, Inversion"]}, {"conceptId": "C139224", "definition": "The numerical value that represents the result of a clinical assessment of muscle strength and function during lateral rotation that is based on the Brooke Modified Medical Research Council Manual Muscle Test. (Brooke MH, Griggs RC, Mendell JR, Fenichel GM, et al. Clinical trial in Duchenne dystrophy. I. The design of the protocol. Muscle Nerve. 1981 May-Jun;4(3):186-97. doi:10.1002/mus.880040304).", "preferredTerm": "Brooke Modified Medical Research Council Manual Muscle Test Score, Lateral Rotation", "submissionValue": "Brooke mMRC MMT Score, Lat. Rotat.", "synonyms": ["Brooke mMRC MMT Score, Lat. Rotat.", "Brooke Modified Medical Research Council Manual Muscle Test Score, Lateral Rotation"]}, {"conceptId": "C139221", "definition": "The numerical value that represents the result of a clinical assessment of muscle strength and function during plantar flexion that is based on the Brooke Modified Medical Research Council Manual Muscle Test. (Brooke MH, Griggs RC, Mendell JR, Fenichel GM, et al. Clinical trial in Duchenne dystrophy. I. The design of the protocol. Muscle Nerve. 1981 May-Jun;4(3):186-97. doi:10.1002/mus.880040304).", "preferredTerm": "Brooke Modified Medical Research Council Manual Muscle Test Score, Plantar Flexion", "submissionValue": "Brooke mMRC MMT Score, Plantar Flex", "synonyms": ["Brooke mMRC MMT Score, Plantar Flex", "Brooke Modified Medical Research Council Manual Muscle Test Score, Plantar Flexion"]}, {"conceptId": "C158256", "definition": "A measurement of the fat weight associated with a body part or whole body.", "preferredTerm": "Fat Mass", "submissionValue": "Fat Mass", "synonyms": ["Fat Mass"]}, {"conceptId": "C154909", "definition": "An indication as to whether the fontanelle is closed.", "preferredTerm": "Fontanelle Closure Indicator", "submissionValue": "Fontanelle Closure Indicator", "synonyms": ["Fontanelle Closure Indicator"]}, {"conceptId": "C181502", "definition": "An estimated assessment of an individual's skeletal maturity (bone age) based on comparison of standard radiographic images of the bones of the hand and wrist. (Greulich WW, Pyle SI. Radiographic atlas of skeletal development of the hand and wrist. The American Journal of the Medical Sciences. 1959;238(3):393.)", "preferredTerm": "Greulich and Pyle Bone Age Estimation", "submissionValue": "Greulich and Pyle Bone Age Estimation", "synonyms": ["Greulich and Pyle Bone Age Estimation", "Greulich and Pyle Skeletal Maturity Estimation"]}, {"conceptId": "C139210", "definition": "An assessment of muscle strength that measures that force with which one holds or grasps.", "preferredTerm": "Grip Strength", "submissionValue": "Grip Strength", "synonyms": ["Grip Strength"]}, {"conceptId": "C181496", "definition": "An assessment of muscle strength that measures the force produced by static muscle contraction during the movement of a body part away from the midline of the body.", "preferredTerm": "Isometric Muscle Strength, Abduction", "submissionValue": "Isometric Muscle Strength, Abduction", "synonyms": ["Isometric Muscle Strength, Abduction"]}, {"conceptId": "C181500", "definition": "An assessment of muscle strength that measures the force produced by static muscle contraction during the movement of a body part toward the midline of the body.", "preferredTerm": "Isometric Muscle Strength, Adduction", "submissionValue": "Isometric Muscle Strength, Adduction", "synonyms": ["Isometric Muscle Strength, Adduction"]}, {"conceptId": "C181497", "definition": "An assessment of muscle strength that measures the force produced by static muscle contraction during the movement of a body part bending upwards towards the dorsal surface of the body.", "preferredTerm": "Isometric Muscle Strength, Dorsiflexion", "submissionValue": "Isometric Muscle Strength, Dorsiflexion", "synonyms": ["Isometric Muscle Strength, Dorsiflexion"]}, {"conceptId": "C139215", "definition": "An assessment of muscle strength that measures the force produced by static muscle contraction during the straightening (unbending) movement between body parts. (NCI)", "preferredTerm": "Isometric Muscle Strength, Extension", "submissionValue": "Isometric Muscle Strength, Extension", "synonyms": ["Isometric Muscle Strength, Extension"]}, {"conceptId": "C181499", "definition": "An assessment of muscle strength that measures the force produced by static muscle contraction during the rotational movement of a body part outward, away from the body.", "preferredTerm": "Isometric Muscle Strength, External Rotation", "submissionValue": "Isometric Muscle Strength, Extern Rotat", "synonyms": ["Isometric Muscle Strength, Extern Rotat", "Isometric Muscle Strength, External Rotation"]}, {"conceptId": "C139216", "definition": "An assessment of muscle strength that measures the force produced by static muscle contraction during the bending movement between body parts. (NCI)", "preferredTerm": "Isometric Muscle Strength, Flexion", "submissionValue": "Isometric Muscle Strength, Flexion", "synonyms": ["Isometric Muscle Strength, Flexion"]}, {"conceptId": "C181498", "definition": "An assessment of muscle strength that measures the force produced by static muscle contraction during the rotational movement of a body part inward, toward the body.", "preferredTerm": "Isometric Muscle Strength, Internal Rotation", "submissionValue": "Isometric Muscle Strength, Intern Rotat", "synonyms": ["Isometric Muscle Strength, Intern Rotat", "Isometric Muscle Strength, Internal Rotation"]}, {"conceptId": "C158257", "definition": "A measurement of the weight of a body part or whole body, minus the weight of the fat associated with that body part or whole body.", "preferredTerm": "Lean Mass", "submissionValue": "Lean Mass", "synonyms": ["Lean Mass"]}, {"conceptId": "C139231", "definition": "The numerical value that represents the result of a clinical assessment of muscle strength and function during abduction that is based on the Medical Research Council Manual Muscle Test. (Medical Research Council. Aids to examination of the peripheral nervous system. Memorandum no. 45, superseding War Memorandum No. 7. London: Her Majesty's Stationary Office; 1976. doi:10.1016/0022-510X(77)90205-2).", "preferredTerm": "Medical Research Council Manual Muscle Test Score, Abduction", "submissionValue": "MRC MMT Score, Abduction", "synonyms": ["Medical Research Council Manual Muscle Test Score, Abduction", "MRC MMT Score, Abduction"]}, {"conceptId": "C139233", "definition": "The numerical value that represents the result of a clinical assessment of muscle strength and function during dorsiflexion that is based on the Medical Research Council Manual Muscle Test. (Medical Research Council. Aids to examination of the peripheral nervous system. Memorandum no. 45, superseding War Memorandum No. 7. London: Her Majesty's Stationary Office; 1976. doi:10.1016/0022-510X(77)90205-2).", "preferredTerm": "Medical Research Council Manual Muscle Test Score, Dorsiflexion", "submissionValue": "MRC MMT Score, Dorsiflexion", "synonyms": ["Medical Research Council Manual Muscle Test Score, Dorsiflexion", "MRC MMT Score, Dorsiflexion"]}, {"conceptId": "C139235", "definition": "The numerical value that represents the result of a clinical assessment of muscle strength and function during eversion that is based on the Medical Research Council Manual Muscle Test. (Medical Research Council. Aids to examination of the peripheral nervous system. Memorandum no. 45, superseding War Memorandum No. 7. London: Her Majesty's Stationary Office; 1976. doi:10.1016/0022-510X(77)90205-2).", "preferredTerm": "Medical Research Council Manual Muscle Test Score, Eversion", "submissionValue": "MRC MMT Score, Eversion", "synonyms": ["Medical Research Council Manual Muscle Test Score, Eversion", "MRC MMT Score, Eversion"]}, {"conceptId": "C139228", "definition": "The numerical value that represents the result of a clinical assessment of muscle strength and function during extension that is based on the Medical Research Council Manual Muscle Test. (Medical Research Council. Aids to examination of the peripheral nervous system. Memorandum no. 45, superseding War Memorandum No. 7. London: Her Majesty's Stationary Office; 1976. doi:10.1016/0022-510X(77)90205-2).", "preferredTerm": "Medical Research Council Manual Muscle Test Score, Extension", "submissionValue": "MRC MMT Score, Extension", "synonyms": ["Medical Research Council Manual Muscle Test Score, Extension", "MRC MMT Score, Extension"]}, {"conceptId": "C139230", "definition": "The numerical value that represents the result of a clinical assessment of muscle strength and function during flexion that is based on the Medical Research Council Manual Muscle. (Medical Research Council. Aids to examination of the peripheral nervous system. Memorandum no. 45, superseding War Memorandum No. 7. London: Her Majesty's Stationary Office; 1976. doi:10.1016/0022-510X(77)90205-2).", "preferredTerm": "Medical Research Council Manual Muscle Test Score, Flexion", "submissionValue": "MRC MMT Score, Flexion", "synonyms": ["Medical Research Council Manual Muscle Test Score, Flexion", "MRC MMT Score, Flexion"]}, {"conceptId": "C139234", "definition": "The numerical value that represents the result of a clinical assessment of muscle strength and function during inversion that is based on the Medical Research Council Manual Muscle Test. (Medical Research Council. Aids to examination of the peripheral nervous system. Memorandum no. 45, superseding War Memorandum No. 7. London: Her Majesty's Stationary Office; 1976. doi:10.1016/0022-510X(77)90205-2).", "preferredTerm": "Medical Research Council Manual Muscle Test Score, Inversion", "submissionValue": "MRC MMT Score, Inversion", "synonyms": ["Medical Research Council Manual Muscle Test Score, Inversion", "MRC MMT Score, Inversion"]}, {"conceptId": "C139232", "definition": "The numerical value that represents the result of a clinical assessment of muscle strength and function during lateral rotation that is based on the Medical Research Council Manual Muscle Test. (Medical Research Council. Aids to examination of the peripheral nervous system. Memorandum no. 45, superseding War Memorandum No. 7. London: Her Majesty's Stationary Office; 1976. doi:10.1016/0022-510X(77)90205-2).", "preferredTerm": "Medical Research Council Manual Muscle Test Score, Lateral Rotation", "submissionValue": "MRC MMT Score, Lat. Rotat.", "synonyms": ["Medical Research Council Manual Muscle Test Score, Lateral Rotation", "MRC MMT Score, Lat. Rotat."]}, {"conceptId": "C139229", "definition": "The numerical value that represents the result of a clinical assessment of muscle strength and function during plantar flexion that is based on the Medical Research Council Manual Muscle Test. (Medical Research Council. Aids to examination of the peripheral nervous system. Memorandum no. 45, superseding War Memorandum No. 7. London: Her Majesty's Stationary Office; 1976. doi:10.1016/0022-510X(77)90205-2).", "preferredTerm": "Medical Research Council Manual Muscle Test Score, Plantar Flexion", "submissionValue": "MRC MMT Score, Plantar Flex", "synonyms": ["Medical Research Council Manual Muscle Test Score, Plantar Flexion", "MRC MMT Score, Plantar Flex"]}, {"conceptId": "C181501", "definition": "A measurement of a muscle's ability to perform repetitive contractions against a force.", "preferredTerm": "Muscle Endurance Measurement", "submissionValue": "Muscle Endurance", "synonyms": ["Muscle Endurance"]}, {"conceptId": "C139211", "definition": "An assessment of hand muscle strength that measures the force with which an individual can squeeze or compress an object using his thumb and one or multiple fingers from the same hand.", "preferredTerm": "Pinch Strength", "submissionValue": "Pinch Strength", "synonyms": ["Pinch Strength"]}, {"conceptId": "C139212", "definition": "An assessment of joint flexibility that measures the movement of a body part pulling away from the midline of the body, in number of degrees. (NCI)", "preferredTerm": "Range of Motion, Abduction", "submissionValue": "Range of Motion, Abduction", "synonyms": ["Range of Motion, Abduction"]}, {"conceptId": "C139214", "definition": "An assessment of joint flexibility that measures the movement of a body part bending towards its dorsal surface, in number of degrees. (NCI)", "preferredTerm": "Range of Motion, Dorsiflexion", "submissionValue": "Range of Motion, Dorsiflexion", "synonyms": ["Range of Motion, Dorsiflexion"]}, {"conceptId": "C139213", "definition": "An assessment of joint flexibility that measures the straightening (unbending) movement between body parts, in number of degrees. (NCI)", "preferredTerm": "Range of Motion, Extension", "submissionValue": "Range of Motion, Extension", "synonyms": ["Range of Motion, Extension"]}, {"conceptId": "C128986", "definition": "The numerical value that represents the result of a clinical assessment of bone erosion based on the Genant modification of the Sharp Joint Erosion Assessment (Genant HK. Methods of assessing radiographic change in rheumatoid arthritis. Am J Med. 1983 Dec 30;75(6A):35-47).", "preferredTerm": "Sharp Genant Bone Erosion Score", "submissionValue": "Sharp/Genant Bone Erosion Score", "synonyms": ["Sharp/Genant Bone Erosion Score"]}, {"conceptId": "C128987", "definition": "The numerical value that represents the result of a clinical assessment of joint space narrowing based on the Genant modification of the Sharp Joint Space Narrowing Assessment (Genant HK. Methods of assessing radiographic change in rheumatoid arthritis. Am J Med. 1983 Dec 30;75(6A):35-47).", "preferredTerm": "Sharp Genant Joint Space Narrowing Score", "submissionValue": "Sharp/Genant JSN Score", "synonyms": ["Sharp/Genant JSN Score"]}, {"conceptId": "C128988", "definition": "The numerical value that represents the result of a clinical assessment of bone erosion based on the Van der Heijde modification of the Sharp Joint Erosion Assessment (Van der Heijde DM, van Riel PL, Nuver-Zwart IH, Gribnau FW, van de Putte LB. Effects of hydroxychloroquine and sulphasalazine on progression of joint damage in rheumatoid arthritis. Lancet 1989;1:1036-8).", "preferredTerm": "Sharp van der Heijde Bone Erosion Score", "submissionValue": "Sharp/Van der Heijde Bone Erosion Score", "synonyms": ["Sharp/Van der Heijde Bone Erosion Score"]}, {"conceptId": "C128989", "definition": "The numerical value that represents the result of a clinical assessment of joint space narrowing based on the Van der Heijde modification of the Sharp Joint Space Narrowing Assessment (Van der Heijde DM, van Riel PL, Nuver-Zwart IH, Gribnau FW, van de Putte LB. Effects of hydroxychloroquine and sulphasalazine on progression of joint damage in rheumatoid arthritis. Lancet 1989;1:1036-8).", "preferredTerm": "Sharp van der Heijde Joint Space Narrowing Score", "submissionValue": "Sharp/Van der Heijde JSN Score", "synonyms": ["Sharp/Van der Heijde JSN Score"]}, {"conceptId": "C178017", "definition": "A measurement of the total mass of the skeletal muscle.", "preferredTerm": "Skeletal Muscle Mass", "submissionValue": "Skeletal Muscle Mass", "synonyms": ["Skeletal Muscle Mass"]}, {"conceptId": "C127774", "definition": "An indication as to whether there are symptoms of swelling.", "preferredTerm": "Swollen Indicator", "submissionValue": "Swollen Indicator", "synonyms": ["Swollen Indicator"]}, {"conceptId": "C127775", "definition": "An indication as to whether there are symptoms of tenderness.", "preferredTerm": "Tenderness Indicator", "submissionValue": "Tenderness Indicator", "synonyms": ["Tenderness Indicator"]}]}