{"_links": {"parentPackage": {"href": "/mdr/ct/packages/sdtmct-2022-12-16", "title": "SDTM Controlled Terminology Package 52 Effective 2022-12-16", "type": "Terminology"}, "priorVersion": {"href": "/mdr/ct/packages/sdtmct-2022-09-30/codelists/C130239", "title": "CDISC Clinical Classification BUERS Test Code Terminology", "type": "Code List"}, "rootItem": {"href": "/mdr/root/ct/sdtmct/codelists/C130239", "title": "Version-agnostic anchor resource for codelist C130239", "type": "Root Value Domain"}, "self": {"href": "/mdr/ct/packages/sdtmct-2022-12-16/codelists/C130239", "title": "CDISC Clinical Classification BUERS Test Code Terminology", "type": "Code List"}}, "conceptId": "C130239", "definition": "Brooke Upper Extremity Rating Scale test code.", "extensible": "false", "name": "Brooke Upper Extremity Rating Scale Clinical Classification Test Code", "preferredTerm": "CDISC Clinical Classification BUERS Test Code Terminology", "submissionValue": "BUERS1TC", "synonyms": ["Brooke Upper Extremity Rating Scale Clinical Classification Test Code"], "terms": [{"conceptId": "C130326", "definition": "Brooke Upper Extremity Rating Scale - Brooke upper extremity rating scale.", "preferredTerm": "BUERS - Brooke Upper Extremity Rating Scale", "submissionValue": "BUERS101", "synonyms": ["BUERS1-Brooke Upper Extremity Rating"]}]}