{"_links": {"parentPackage": {"href": "/mdr/ct/packages/sdtmct-2022-12-16", "title": "SDTM Controlled Terminology Package 52 Effective 2022-12-16", "type": "Terminology"}, "priorVersion": {"href": "/mdr/ct/packages/sdtmct-2022-09-30/codelists/C130251", "title": "CDISC Clinical Classification KDPI Test Code Terminology", "type": "Code List"}, "rootItem": {"href": "/mdr/root/ct/sdtmct/codelists/C130251", "title": "Version-agnostic anchor resource for codelist C130251", "type": "Root Value Domain"}, "self": {"href": "/mdr/ct/packages/sdtmct-2022-12-16/codelists/C130251", "title": "CDISC Clinical Classification KDPI Test Code Terminology", "type": "Code List"}}, "conceptId": "C130251", "definition": "Kidney Donor Profile Index test code.", "extensible": "false", "name": "Kidney Donor Profile Index Clinical Classification Test Code", "preferredTerm": "CDISC Clinical Classification KDPI Test Code Terminology", "submissionValue": "KDPI01TC", "synonyms": ["Kidney Donor Profile Index Clinical Classification Test Code"], "terms": [{"conceptId": "C130393", "definition": "Kidney Donor Profile Index - KDPI score.", "preferredTerm": "KDPI - KDPI Score", "submissionValue": "KDPI0101", "synonyms": ["KDPI01-KDPI Score"]}]}