{"_links": {"parentPackage": {"href": "/mdr/ct/packages/sdtmct-2022-12-16", "title": "SDTM Controlled Terminology Package 52 Effective 2022-12-16", "type": "Terminology"}, "priorVersion": {"href": "/mdr/ct/packages/sdtmct-2022-09-30/codelists/C130268", "title": "CDISC Questionnaire WHODAS 2.0 36-item Version Interviewer-administered Test Name Terminology", "type": "Code List"}, "rootItem": {"href": "/mdr/root/ct/sdtmct/codelists/C130268", "title": "Version-agnostic anchor resource for codelist C130268", "type": "Root Value Domain"}, "self": {"href": "/mdr/ct/packages/sdtmct-2022-12-16/codelists/C130268", "title": "CDISC Questionnaire WHODAS 2.0 36-item Version Interviewer-administered Test Name Terminology", "type": "Code List"}}, "conceptId": "C130268", "definition": "World Health Organization Disability Assessment Schedule 2.0 - 36-Item Interviewer test name.", "extensible": "false", "name": "World Health Organization Disability Assessment Schedule 2.0 - 36-Item Interviewer Questionnaire Test Name", "preferredTerm": "CDISC Questionnaire WHODAS 2.0 36-item Version Interviewer-administered Test Name Terminology", "submissionValue": "WD5TN", "synonyms": ["World Health Organization Disability Assessment Schedule 2.0 - 36-Item Interviewer Questionnaire Test Name"], "terms": [{"conceptId": "C130747", "definition": "World Health Organization Disability Assessment Schedule 2.0 - 36-Item Interviewer - Because of your health condition, in the past 30 days, how much difficulty did you have in: Taking care of your household responsibilities?", "preferredTerm": "WHODAS 2.0 36-item Version Interviewer-administered - Care of Household Responsibilities", "submissionValue": "WD5-Care of Household Responsibilities", "synonyms": ["WD5-Care of Household Responsibilities"]}, {"conceptId": "C130727", "definition": "World Health Organization Disability Assessment Schedule 2.0 - 36-Item Interviewer - In the past 30 days, how much difficulty did you have in: Concentrating on doing something for ten minutes?", "preferredTerm": "WHODAS 2.0 36-item Version Interviewer-administered - Concentrating for Ten Minutes", "submissionValue": "WD5-Concentrating for Ten Minutes", "synonyms": ["WD5-Concentrating for Ten Minutes"]}, {"conceptId": "C130725", "definition": "World Health Organization Disability Assessment Schedule 2.0 - 36-Item Interviewer - What is your current marital status?", "preferredTerm": "WHODAS 2.0 36-item Version Interviewer-administered - Current Marital Status", "submissionValue": "WD5-Current Marital Status", "synonyms": ["WD5-Current Marital Status"]}, {"conceptId": "C130751", "definition": "World Health Organization Disability Assessment Schedule 2.0 - 36-Item Interviewer - In the past 30 days, on how many days did you reduce or completely miss household work because of your health condition?", "preferredTerm": "WHODAS 2.0 36-item Version Interviewer-administered - Days Reduce or Miss Household Work", "submissionValue": "WD5-Days Reduce or Miss Household Work", "synonyms": ["WD5-Days Reduce or Miss Household Work"]}, {"conceptId": "C130768", "definition": "World Health Organization Disability Assessment Schedule 2.0 - 36-Item Interviewer - In the past 30 days, for how many days were you totally unable to carry out your usual activities or work because of any health condition?", "preferredTerm": "WHODAS 2.0 36-item Version Interviewer-administered - Days Unable to Carry Out Activities", "submissionValue": "WD5-Days Unable to Carry Out Activities", "synonyms": ["WD5-Days Unable to Carry Out Activities"]}, {"conceptId": "C130742", "definition": "World Health Organization Disability Assessment Schedule 2.0 - 36-Item Interviewer - In the past 30 days, how much difficulty did you have in: Dealing with people you do not know?", "preferredTerm": "WHODAS 2.0 36-item Version Interviewer-administered - Dealing With People You Do Not Know", "submissionValue": "WD5-Dealing With People You Do Not Know", "synonyms": ["WD5-Dealing With People You Do Not Know"]}, {"conceptId": "C130726", "definition": "World Health Organization Disability Assessment Schedule 2.0 - 36-Item Interviewer - Which describes your main work status best?", "preferredTerm": "WHODAS 2.0 36-item Version Interviewer-administered - Describes Main Work Status Best", "submissionValue": "WD5-Describes Main Work Status Best", "synonyms": ["WD5-Describes Main Work Status Best"]}, {"conceptId": "C130748", "definition": "World Health Organization Disability Assessment Schedule 2.0 - 36-Item Interviewer - Because of your health condition, in the past 30 days, how much difficulty did you have in: Doing your most important household tasks well?", "preferredTerm": "WHODAS 2.0 36-item Version Interviewer-administered - Doing Important Household Tasks", "submissionValue": "WD5-Doing Important Household Tasks", "synonyms": ["WD5-Doing Important Household Tasks"]}, {"conceptId": "C130753", "definition": "World Health Organization Disability Assessment Schedule 2.0 - 36-Item Interviewer - Because of your health condition, in the past 30 days how much difficulty did you have in: Doing your most important work/school tasks well?", "preferredTerm": "WHODAS 2.0 36-item Version Interviewer-administered - Doing Important Work or School Tasks", "submissionValue": "WD5-Doing Important Work/School Tasks", "synonyms": ["WD5-Doing Important Work/School Tasks"]}, {"conceptId": "C130764", "definition": "World Health Organization Disability Assessment Schedule 2.0 - 36-Item Interviewer - In the past 30 days: How much has your health been a drain on the financial resources of you or your family?", "preferredTerm": "WHODAS 2.0 36-item Version Interviewer-administered - Drain on Financial Resources", "submissionValue": "WD5-Drain on Financial Resources", "synonyms": ["WD5-Drain on Financial Resources"]}, {"conceptId": "C130757", "definition": "World Health Organization Disability Assessment Schedule 2.0 - 36-Item Interviewer - Because of your health condition, in the past 30 days how much difficulty did you have in: Did you earn less money as the result of a health condition?", "preferredTerm": "WHODAS 2.0 36-item Version Interviewer-administered - Earn Less Money", "submissionValue": "WD5-Earn Less Money", "synonyms": ["WD5-Earn Less Money"]}, {"conceptId": "C130740", "definition": "World Health Organization Disability Assessment Schedule 2.0 - 36-Item Interviewer - In the past 30 days, how much difficulty did you have in: Eating?", "preferredTerm": "WHODAS 2.0 36-item Version Interviewer-administered - Eating", "submissionValue": "WD5-Eating", "synonyms": ["WD5-Eating"]}, {"conceptId": "C130763", "definition": "World Health Organization Disability Assessment Schedule 2.0 - 36-Item Interviewer - In the past 30 days: How much have you been emotionally affected by your health condition?", "preferredTerm": "WHODAS 2.0 36-item Version Interviewer-administered - Emotionally Affected by Health", "submissionValue": "WD5-Emotionally Affected by Health", "synonyms": ["WD5-Emotionally Affected by Health"]}, {"conceptId": "C130729", "definition": "World Health Organization Disability Assessment Schedule 2.0 - 36-Item Interviewer - In the past 30 days, how much difficulty did you have in: Analysing and finding solutions to problems in day-to-day life?", "preferredTerm": "WHODAS 2.0 36-item Version Interviewer-administered - Finding Solutions to Problems", "submissionValue": "WD5-Finding Solutions to Problems", "synonyms": ["WD5-Finding Solutions to Problems"]}, {"conceptId": "C130744", "definition": "World Health Organization Disability Assessment Schedule 2.0 - 36-Item Interviewer - In the past 30 days, how much difficulty did you have in: Getting along with people who are close to you?", "preferredTerm": "WHODAS 2.0 36-item Version Interviewer-administered - Get Along With People Close to You", "submissionValue": "WD5-Get Along With People Close to You", "synonyms": ["WD5-Get Along With People Close to You"]}, {"conceptId": "C130754", "definition": "World Health Organization Disability Assessment Schedule 2.0 - 36-Item Interviewer - Because of your health condition, in the past 30 days how much difficulty did you have in: Getting all the work done that you need to do?", "preferredTerm": "WHODAS 2.0 36-item Version Interviewer-administered - Getting All Work Done You Need to Do", "submissionValue": "WD5-Getting All Work Done You Need", "synonyms": ["WD5-Getting All Work Done You Need"]}, {"conceptId": "C130739", "definition": "World Health Organization Disability Assessment Schedule 2.0 - 36-Item Interviewer - In the past 30 days, how much difficulty did you have in: Getting dressed?", "preferredTerm": "WHODAS 2.0 36-item Version Interviewer-administered - Getting Dressed", "submissionValue": "WD5-Getting Dressed", "synonyms": ["WD5-Getting Dressed"]}, {"conceptId": "C130749", "definition": "World Health Organization Disability Assessment Schedule 2.0 - 36-Item Interviewer - Because of your health condition, in the past 30 days, how much difficulty did you have in: Getting all the household work done that you needed to do?", "preferredTerm": "WHODAS 2.0 36-item Version Interviewer-administered - Getting Household Work Done Needed", "submissionValue": "WD5-Getting Household Work Done Needed", "synonyms": ["WD5-Getting Household Work Done Needed"]}, {"conceptId": "C130750", "definition": "World Health Organization Disability Assessment Schedule 2.0 - 36-Item Interviewer - Because of your health condition, in the past 30 days, how much difficulty did you have in: Getting your household work done as quickly as needed?", "preferredTerm": "WHODAS 2.0 36-item Version Interviewer-administered - Getting Household Work Done Quickly", "submissionValue": "WD5-Getting Household Work Done Quickly", "synonyms": ["WD5-Getting Household Work Done Quickly"]}, {"conceptId": "C130736", "definition": "World Health Organization Disability Assessment Schedule 2.0 - 36-Item Interviewer - In the past 30 days, how much difficulty did you have in: Getting out of your home?", "preferredTerm": "WHODAS 2.0 36-item Version Interviewer-administered - Getting Out of Your Home", "submissionValue": "WD5-Getting Out of Your Home", "synonyms": ["WD5-Getting Out of Your Home"]}, {"conceptId": "C130755", "definition": "World Health Organization Disability Assessment Schedule 2.0 - 36-Item Interviewer - Because of your health condition, in the past 30 days how much difficulty did you have in: Getting your work done as quickly as needed?", "preferredTerm": "WHODAS 2.0 36-item Version Interviewer-administered - Getting Work Done Quickly as Needed", "submissionValue": "WD5-Getting Work Done Quickly as Needed", "synonyms": ["WD5-Getting Work Done Quickly as Needed"]}, {"conceptId": "C130756", "definition": "World Health Organization Disability Assessment Schedule 2.0 - 36-Item Interviewer - Because of your health condition, in the past 30 days how much difficulty did you have in: Have you had to work at a lower level because of a health condition?", "preferredTerm": "WHODAS 2.0 36-item Version Interviewer-administered - Had to Work at a Lower Level", "submissionValue": "WD5-Had to Work at a Lower Level", "synonyms": ["WD5-Had to Work at a Lower Level"]}, {"conceptId": "C130758", "definition": "World Health Organization Disability Assessment Schedule 2.0 - 36-Item Interviewer - In the past 30 days, on how many days did you miss work for half a day or more because of your health condition?", "preferredTerm": "WHODAS 2.0 36-item Version Interviewer-administered - How Many Days Did You Miss Work", "submissionValue": "WD5-How Many Days Did You Miss Work", "synonyms": ["WD5-How Many Days Did You Miss Work"]}, {"conceptId": "C130767", "definition": "World Health Organization Disability Assessment Schedule 2.0 - 36-Item Interviewer - Overall, in the past 30 days, how many days were these difficulties present?", "preferredTerm": "WHODAS 2.0 36-item Version Interviewer-administered - How Many Days Difficulties Present", "submissionValue": "WD5-How Many Days Difficulties Present", "synonyms": ["WD5-How Many Days Difficulties Present"]}, {"conceptId": "C130769", "definition": "World Health Organization Disability Assessment Schedule 2.0 - 36-Item Interviewer - In the past 30 days, not counting the days that you were totally unable, for how many days did you cut back or reduce your usual activities or work because of any health condition?", "preferredTerm": "WHODAS 2.0 36-item Version Interviewer-administered - How Many Days Reduce Activities", "submissionValue": "WD5-How Many Days Reduce Activities", "synonyms": ["WD5-How Many Days Reduce Activities"]}, {"conceptId": "C130723", "definition": "World Health Organization Disability Assessment Schedule 2.0 - 36-Item Interviewer - How old are you now?", "preferredTerm": "WHODAS 2.0 36-item Version Interviewer-administered - How Old Are You Now", "submissionValue": "WD5-How Old Are You Now", "synonyms": ["WD5-How Old Are You Now"]}, {"conceptId": "C130730", "definition": "World Health Organization Disability Assessment Schedule 2.0 - 36-Item Interviewer - In the past 30 days, how much difficulty did you have in: Learning a new task, for example, learning how to get to a new place?", "preferredTerm": "WHODAS 2.0 36-item Version Interviewer-administered - Learning a New Task", "submissionValue": "WD5-Learning a New Task", "synonyms": ["WD5-Learning a New Task"]}, {"conceptId": "C130721", "definition": "World Health Organization Disability Assessment Schedule 2.0 - 36-Item Interviewer - Living situation at time of interview.", "preferredTerm": "WHODAS 2.0 36-item Version Interviewer-administered - Living Situation at Interview", "submissionValue": "WD5-Living Situation at Interview", "synonyms": ["WD5-Living Situation at Interview"]}, {"conceptId": "C130743", "definition": "World Health Organization Disability Assessment Schedule 2.0 - 36-Item Interviewer - In the past 30 days, how much difficulty did you have in: Maintaining a friendship?", "preferredTerm": "WHODAS 2.0 36-item Version Interviewer-administered - Maintaining a Friendship", "submissionValue": "WD5-Maintaining a Friendship", "synonyms": ["WD5-Maintaining a Friendship"]}, {"conceptId": "C130745", "definition": "World Health Organization Disability Assessment Schedule 2.0 - 36-Item Interviewer - In the past 30 days, how much difficulty did you have in: Making new friends?", "preferredTerm": "WHODAS 2.0 36-item Version Interviewer-administered - Making New Friends", "submissionValue": "WD5-Making New Friends", "synonyms": ["WD5-Making New Friends"]}, {"conceptId": "C130735", "definition": "World Health Organization Disability Assessment Schedule 2.0 - 36-Item Interviewer - In the past 30 days, how much difficulty did you have in: Moving around inside your home?", "preferredTerm": "WHODAS 2.0 36-item Version Interviewer-administered - Moving Around Inside Your Home", "submissionValue": "WD5-Moving Around Inside Your Home", "synonyms": ["WD5-Moving Around Inside Your Home"]}, {"conceptId": "C130760", "definition": "World Health Organization Disability Assessment Schedule 2.0 - 36-Item Interviewer - In the past 30 days: How much of a problem did you have because of barriers or hindrances in the world around you?", "preferredTerm": "WHODAS 2.0 36-item Version Interviewer-administered - Problem Because of Barriers in World", "submissionValue": "WD5-Problem Because of Barriers in World", "synonyms": ["WD5-Problem Because of Barriers in World"]}, {"conceptId": "C130765", "definition": "World Health Organization Disability Assessment Schedule 2.0 - 36-Item Interviewer - In the past 30 days: How much of a problem did your family have because of your health problems?", "preferredTerm": "WHODAS 2.0 36-item Version Interviewer-administered - How Much Problem Did Your Family Have", "submissionValue": "WD5-Problem Did Your Family Have", "synonyms": ["WD5-Problem Did Your Family Have"]}, {"conceptId": "C130766", "definition": "World Health Organization Disability Assessment Schedule 2.0 - 36-Item Interviewer - In the past 30 days: How much of a problem did you have in doing things by yourself for relaxation or pleasure?", "preferredTerm": "WHODAS 2.0 36-item Version Interviewer-administered - Problem Doing Things for Relaxation", "submissionValue": "WD5-Problem Doing Things for Relaxation", "synonyms": ["WD5-Problem Doing Things for Relaxation"]}, {"conceptId": "C130759", "definition": "World Health Organization Disability Assessment Schedule 2.0 - 36-Item Interviewer - In the past 30 days: How much of a problem did you have joining in community activities (for example, festivities, religious or other activities) in the same way as anyone else can?", "preferredTerm": "WHODAS 2.0 36-item Version Interviewer-administered - Problem Joining Community Activities", "submissionValue": "WD5-Problem Joining Community Activities", "synonyms": ["WD5-Problem Joining Community Activities"]}, {"conceptId": "C130761", "definition": "World Health Organization Disability Assessment Schedule 2.0 - 36-Item Interviewer - In the past 30 days: How much of a problem did you have living with dignity because of the attitudes and actions of others?", "preferredTerm": "WHODAS 2.0 36-item Version Interviewer-administered - Problem Living with Dignity", "submissionValue": "WD5-Problem Living with Dignity", "synonyms": ["WD5-Problem Living with Dignity"]}, {"conceptId": "C130728", "definition": "World Health Organization Disability Assessment Schedule 2.0 - 36-Item Interviewer - In the past 30 days, how much difficulty did you have in: Remembering to do important things?", "preferredTerm": "WHODAS 2.0 36-item Version Interviewer-administered - Remembering to Do Important Things", "submissionValue": "WD5-Remembering to Do Important Things", "synonyms": ["WD5-Remembering to Do Important Things"]}, {"conceptId": "C130722", "definition": "World Health Organization Disability Assessment Schedule 2.0 - 36-Item Interviewer - Record sex as observed.", "preferredTerm": "WHODAS 2.0 36-item Version Interviewer-administered - Sex as Observed", "submissionValue": "WD5-Sex as Observed", "synonyms": ["WD5-Sex as Observed"]}, {"conceptId": "C130746", "definition": "World Health Organization Disability Assessment Schedule 2.0 - 36-Item Interviewer - In the past 30 days, how much difficulty did you have in: Sexual activities?", "preferredTerm": "WHODAS 2.0 36-item Version Interviewer-administered - Sexual Activities", "submissionValue": "WD5-Sexual Activities", "synonyms": ["WD5-Sexual Activities"]}, {"conceptId": "C130733", "definition": "World Health Organization Disability Assessment Schedule 2.0 - 36-Item Interviewer - In the past 30 days, how much difficulty did you have in: Standing for long periods such as 30 minutes?", "preferredTerm": "WHODAS 2.0 36-item Version Interviewer-administered - Standing for Long Periods", "submissionValue": "WD5-Standing for Long Periods", "synonyms": ["WD5-Standing for Long Periods"]}, {"conceptId": "C130734", "definition": "World Health Organization Disability Assessment Schedule 2.0 - 36-Item Interviewer - In the past 30 days, how much difficulty did you have in: Standing up from sitting down?", "preferredTerm": "WHODAS 2.0 36-item Version Interviewer-administered - Standing Up From Sitting Down", "submissionValue": "WD5-Standing Up From Sitting Down", "synonyms": ["WD5-Standing Up From Sitting Down"]}, {"conceptId": "C130732", "definition": "World Health Organization Disability Assessment Schedule 2.0 - 36-Item Interviewer - In the past 30 days, how much difficulty did you have in: Starting and maintaining a conversation?", "preferredTerm": "WHODAS 2.0 36-item Version Interviewer-administered - Starting or Maintaining Conversation", "submissionValue": "WD5-Starting/Maintaining Conversation", "synonyms": ["WD5-Starting/Maintaining Conversation"]}, {"conceptId": "C130741", "definition": "World Health Organization Disability Assessment Schedule 2.0 - 36-Item Interviewer - In the past 30 days, how much difficulty did you have in: Staying by yourself for a few days?", "preferredTerm": "WHODAS 2.0 36-item Version Interviewer-administered - Staying by Yourself for a Few Days", "submissionValue": "WD5-Staying by Yourself for a Few Days", "synonyms": ["WD5-Staying by Yourself for a Few Days"]}, {"conceptId": "C130762", "definition": "World Health Organization Disability Assessment Schedule 2.0 - 36-Item Interviewer - In the past 30 days: How much time did you spend on your health condition or its consequences?", "preferredTerm": "WHODAS 2.0 36-item Version Interviewer-administered - Time Spend on Your Health Condition", "submissionValue": "WD5-Time Spend on Your Health Condition", "synonyms": ["WD5-Time Spend on Your Health Condition"]}, {"conceptId": "C130731", "definition": "World Health Organization Disability Assessment Schedule 2.0 - 36-Item Interviewer - In the past 30 days, how much difficulty did you have in: Generally understanding what people say?", "preferredTerm": "WHODAS 2.0 36-item Version Interviewer-administered - Understanding What People Say", "submissionValue": "WD5-Understanding What People Say", "synonyms": ["WD5-Understanding What People Say"]}, {"conceptId": "C130737", "definition": "World Health Organization Disability Assessment Schedule 2.0 - 36-Item Interviewer - In the past 30 days, how much difficulty did you have in: Walking a long distance such as a kilometre [or equivalent]?", "preferredTerm": "WHODAS 2.0 36-item Version Interviewer-administered - Walking a Long Distance", "submissionValue": "WD5-Walking a Long Distance", "synonyms": ["WD5-Walking a Long Distance"]}, {"conceptId": "C130738", "definition": "World Health Organization Disability Assessment Schedule 2.0 - 36-Item Interviewer - In the past 30 days, how much difficulty did you have in: Washing your whole body?", "preferredTerm": "WHODAS 2.0 36-item Version Interviewer-administered - Washing Your Whole Body", "submissionValue": "WD5-Washing Your Whole Body", "synonyms": ["WD5-Washing Your Whole Body"]}, {"conceptId": "C130724", "definition": "World Health Organization Disability Assessment Schedule 2.0 - 36-Item Interviewer - How many years in all did you spend studying in school, college or university?", "preferredTerm": "WHODAS 2.0 36-item Version Interviewer-administered - Years Studying in School or College", "submissionValue": "WD5-Years Studying in School/College", "synonyms": ["WD5-Years Studying in School/College"]}, {"conceptId": "C130752", "definition": "World Health Organization Disability Assessment Schedule 2.0 - 36-Item Interviewer - Because of your health condition, in the past 30 days how much difficulty did you have in: Your day-to-day work/school?", "preferredTerm": "WHODAS 2.0 36-item Version Interviewer-administered - Your Day-to-Day Work or School", "submissionValue": "WD5-Your Day-to-Day Work/School", "synonyms": ["WD5-Your Day-to-Day Work/School"]}]}