{"_links": {"parentPackage": {"href": "/mdr/ct/packages/sdtmct-2022-12-16", "title": "SDTM Controlled Terminology Package 52 Effective 2022-12-16", "type": "Terminology"}, "priorVersion": {"href": "/mdr/ct/packages/sdtmct-2022-09-30/codelists/C132314", "title": "CDISC SDTM Specimen Collection Method Terminology", "type": "Code List"}, "rootItem": {"href": "/mdr/root/ct/sdtmct/codelists/C132314", "title": "Version-agnostic anchor resource for codelist C132314", "type": "Root Value Domain"}, "self": {"href": "/mdr/ct/packages/sdtmct-2022-12-16/codelists/C132314", "title": "CDISC SDTM Specimen Collection Method Terminology", "type": "Code List"}}, "conceptId": "C132314", "definition": "Terminology relevant to the method used in specimen collection.", "extensible": "true", "name": "Specimen Collection Method", "preferredTerm": "CDISC SDTM Specimen Collection Method Terminology", "submissionValue": "CLMETH", "synonyms": ["Specimen Collection Method"], "terms": [{"conceptId": "C15631", "definition": "A technique in which suction is used to remove bodily fluid or tissue.", "preferredTerm": "Aspiration", "submissionValue": "ASPIRATION"}, {"conceptId": "C15189", "definition": "The removal of tissue specimens or fluid from the living body for microscopic examination, performed to establish a diagnosis.", "preferredTerm": "Biopsy", "submissionValue": "BIOPSY"}, {"conceptId": "C189366", "definition": "A type of urine collection method in which a sterile wipe is applied to the area around the urethra and the collection cup is placed into the urine mid-stream, after urination has begun.", "preferredTerm": "Clean Catch Mid-Stream", "submissionValue": "CLEAN CATCH MID-STREAM"}, {"conceptId": "C15216", "definition": "The removal of tissue with a curette (a spoon-shaped instrument with a sharp edge).", "preferredTerm": "Curettage Procedure", "submissionValue": "CURETTAGE"}, {"conceptId": "C85859", "definition": "A technique in which material is cleared from the throat or lungs by coughing it up and spitting it out.", "preferredTerm": "Expectorate", "submissionValue": "EXPECTORATION"}, {"conceptId": "C15361", "definition": "The removal of tissue specimens or fluid from the living body with a thin needle.", "preferredTerm": "Fine-Needle Aspiration", "submissionValue": "FINE NEEDLE ASPIRATION"}, {"conceptId": "C85551", "definition": "A technique in which the tip of a finger is pricked with a lancing device to obtain a small quantity of capillary blood.", "preferredTerm": "Finger Stick", "submissionValue": "FINGERSTICK"}, {"conceptId": "C184398", "definition": "A technique in which a specimen flows out of the body through a tube due to the force of gravity.", "preferredTerm": "Gravity Drip Collection Method", "submissionValue": "GRAVITY DRIP"}, {"conceptId": "C179749", "definition": "A non-invasive specimen collection technique where cellulose acetate filter paper is applied to a body surface (e.g., ocular surface) to collect superficial epithelial cells, which can be air-dried or fixed and then stained for histological, immunohistological, or molecular analysis.", "preferredTerm": "Impression Cytology", "submissionValue": "IMPRESSION CYTOLOGY"}, {"conceptId": "C132353", "definition": "A technique in which hypotonic saline is inhaled, followed by expectoration.", "preferredTerm": "Induced Expectoration Technique", "submissionValue": "INDUCED EXPECTORATION"}, {"conceptId": "C38068", "definition": "A technique in which a fluid is introduced and collected from a body cavity or location.", "preferredTerm": "Lavage", "submissionValue": "LAVAGE", "synonyms": ["Wash"]}, {"conceptId": "C158758", "definition": "A surgical procedure in which tissue is removed from the body.", "preferredTerm": "Resection", "submissionValue": "SURGICAL RESECTION"}, {"conceptId": "C17627", "definition": "A technique in which a tufted material on the end of a stick is rubbed against a surface.", "preferredTerm": "Swab", "submissionValue": "SWAB"}, {"conceptId": "C179750", "definition": "A technique for specimen collection that utilizes an adhesive-based ribbon.", "preferredTerm": "Tape Adhesion Specimen Collection Method", "submissionValue": "TAPE ADHESION", "synonyms": ["Adhesive Tape Method"]}]}