{"_links": {"parentPackage": {"href": "/mdr/ct/packages/sdtmct-2022-12-16", "title": "SDTM Controlled Terminology Package 52 Effective 2022-12-16", "type": "Terminology"}, "priorVersion": {"href": "/mdr/ct/packages/sdtmct-2022-09-30/codelists/C132312", "title": "CDISC SDTM Asthma Findings About Test Name Terminology", "type": "Code List"}, "rootItem": {"href": "/mdr/root/ct/sdtmct/codelists/C132312", "title": "Version-agnostic anchor resource for codelist C132312", "type": "Root Value Domain"}, "self": {"href": "/mdr/ct/packages/sdtmct-2022-12-16/codelists/C132312", "title": "CDISC SDTM Asthma Findings About Test Name Terminology", "type": "Code List"}}, "conceptId": "C132312", "definition": "Terminology relevant to the test names that describe findings about an asthma event or intervention.", "extensible": "true", "name": "Asthma Findings About Test Name", "preferredTerm": "CDISC SDTM Asthma Findings About Test Name Terminology", "submissionValue": "ASFATS", "synonyms": ["Asthma Findings About Test Name"], "terms": [{"conceptId": "C127786", "definition": "An indication as to whether something has happened, such as an event or incident.", "preferredTerm": "Occurrence Indicator", "submissionValue": "Occurrence Indicator", "synonyms": ["Occurrence Indicator"]}]}