{"_links": {"parentPackage": {"href": "/mdr/ct/packages/sdtmct-2022-12-16", "title": "SDTM Controlled Terminology Package 52 Effective 2022-12-16", "type": "Terminology"}, "priorVersion": {"href": "/mdr/ct/packages/sdtmct-2022-09-30/codelists/C135687", "title": "CDISC Questionnaire PGI Generic Modification Version Test Name Terminology", "type": "Code List"}, "rootItem": {"href": "/mdr/root/ct/sdtmct/codelists/C135687", "title": "Version-agnostic anchor resource for codelist C135687", "type": "Root Value Domain"}, "self": {"href": "/mdr/ct/packages/sdtmct-2022-12-16/codelists/C135687", "title": "CDISC Questionnaire PGI Generic Modification Version Test Name Terminology", "type": "Code List"}}, "conceptId": "C135687", "definition": "Patient Global Impression Generic Modification Version test name.", "extensible": "false", "name": "Patient Global Impression Generic Modification Version Questionnaire Test Name", "preferredTerm": "CDISC Questionnaire PGI Generic Modification Version Test Name Terminology", "submissionValue": "PGI01TN", "synonyms": ["Patient Global Impression Generic Modification Version Questionnaire Test Name"], "terms": [{"conceptId": "C135818", "definition": "Patient Global Impression - Compared to <previously assessed protocol specified time point> how much has your condition changed?", "preferredTerm": "PGI Generic Modification Version - Change", "submissionValue": "PGI01-Change", "synonyms": ["PGI01-Change"]}, {"conceptId": "C135819", "definition": "Patient Global Impression - Compared to <previously assessed protocol specified time point> how much has your condition improved?", "preferredTerm": "PGI Generic Modification Version - Improvement", "submissionValue": "PGI01-Improvement", "synonyms": ["PGI01-Improvement"]}, {"conceptId": "C135817", "definition": "Patient Global Impression - Considering all the ways your condition impacts you, how severe is your condition at this time?", "preferredTerm": "PGI Generic Modification Version - Severity", "submissionValue": "PGI01-Severity", "synonyms": ["PGI01-Severity"]}]}