{"_links": {"parentPackage": {"href": "/mdr/ct/packages/sdtmct-2022-12-16", "title": "SDTM Controlled Terminology Package 52 Effective 2022-12-16", "type": "Terminology"}, "priorVersion": {"href": "/mdr/ct/packages/sdtmct-2022-09-30/codelists/C135679", "title": "CDISC Questionnaire BEBQ Concurrent Version Test Name Terminology", "type": "Code List"}, "rootItem": {"href": "/mdr/root/ct/sdtmct/codelists/C135679", "title": "Version-agnostic anchor resource for codelist C135679", "type": "Root Value Domain"}, "self": {"href": "/mdr/ct/packages/sdtmct-2022-12-16/codelists/C135679", "title": "CDISC Questionnaire BEBQ Concurrent Version Test Name Terminology", "type": "Code List"}}, "conceptId": "C135679", "definition": "Baby Eating Behaviour Questionnaire Concurrent Version test name.", "extensible": "false", "name": "Baby Eating Behaviour Questionnaire Concurrent Version Questionnaire Test Name", "preferredTerm": "CDISC Questionnaire BEBQ Concurrent Version Test Name Terminology", "submissionValue": "BEBQ01TN", "synonyms": ["Baby Eating Behaviour Questionnaire Concurrent Version Questionnaire Test Name"], "terms": [{"conceptId": "C135780", "definition": "Baby Eating Behaviour Questionnaire - Concurrent - My baby becomes distressed while feeding.", "preferredTerm": "BEBQ Concurrent Version - Baby Becomes Distressed Feeding", "submissionValue": "BEBQ01-Baby Becomes Distressed Feeding", "synonyms": ["BEBQ01-Baby Becomes Distressed Feeding"]}, {"conceptId": "C135791", "definition": "Baby Eating Behaviour Questionnaire - Concurrent - My baby enjoys feeding time.", "preferredTerm": "BEBQ Concurrent Version - Baby Enjoys Feeding Time", "submissionValue": "BEBQ01-Baby Enjoys Feeding Time", "synonyms": ["BEBQ01-Baby Enjoys Feeding Time"]}, {"conceptId": "C135785", "definition": "Baby Eating Behaviour Questionnaire - Concurrent - My baby feeds slowly.", "preferredTerm": "BEBQ Concurrent Version - Baby Feeds Slowly", "submissionValue": "BEBQ01-Baby Feeds Slowly", "synonyms": ["BEBQ01-Baby Feeds Slowly"]}, {"conceptId": "C135779", "definition": "Baby Eating Behaviour Questionnaire - Concurrent - My baby finishes feeding quickly.", "preferredTerm": "BEBQ Concurrent Version - Baby Finishes Feeding Quickly", "submissionValue": "BEBQ01-Baby Finishes Feeding Quickly", "synonyms": ["BEBQ01-Baby Finishes Feeding Quickly"]}, {"conceptId": "C135776", "definition": "Baby Eating Behaviour Questionnaire - Concurrent - My baby frequently wants more milk than I provide.", "preferredTerm": "BEBQ Concurrent Version - Baby Frequently Wants More Milk", "submissionValue": "BEBQ01-Baby Frequently Wants More Milk", "synonyms": ["BEBQ01-Baby Frequently Wants More Milk"]}, {"conceptId": "C135781", "definition": "Baby Eating Behaviour Questionnaire - Concurrent - My baby gets full up easily.", "preferredTerm": "BEBQ Concurrent Version - Baby Gets Full Up Easily", "submissionValue": "BEBQ01-Baby Gets Full Up Easily", "synonyms": ["BEBQ01-Baby Gets Full Up Easily"]}, {"conceptId": "C135778", "definition": "Baby Eating Behaviour Questionnaire - Concurrent - My baby has a big appetite.", "preferredTerm": "BEBQ Concurrent Version - Baby Has a Big Appetite", "submissionValue": "BEBQ01-Baby Has a Big Appetite", "synonyms": ["BEBQ01-Baby Has a Big Appetite"]}, {"conceptId": "C135788", "definition": "Baby Eating Behaviour Questionnaire - Concurrent - My baby is always demanding a feed.", "preferredTerm": "BEBQ Concurrent Version - Baby Is Always Demanding a Feed", "submissionValue": "BEBQ01-Baby Is Always Demanding a Feed", "synonyms": ["BEBQ01-Baby Is Always Demanding a Feed"]}, {"conceptId": "C135777", "definition": "Baby Eating Behaviour Questionnaire - Concurrent - My baby loves milk.", "preferredTerm": "BEBQ Concurrent Version - Baby Loves Milk", "submissionValue": "BEBQ01-Baby Loves Milk", "synonyms": ["BEBQ01-Baby Loves Milk"]}, {"conceptId": "C135775", "definition": "Baby Eating Behaviour Questionnaire - Concurrent - My baby seems contented while feeding.", "preferredTerm": "BEBQ Concurrent Version - Baby Seems Contented Feeding", "submissionValue": "BEBQ01-Baby Seems Contented Feeding", "synonyms": ["BEBQ01-Baby Seems Contented Feeding"]}, {"conceptId": "C135789", "definition": "Baby Eating Behaviour Questionnaire - Concurrent - My baby sucks more and more slowly during the course of a feed.", "preferredTerm": "BEBQ Concurrent Version - Baby Sucks More and More Slowly", "submissionValue": "BEBQ01-Baby Sucks More and More Slowly", "synonyms": ["BEBQ01-Baby Sucks More and More Slowly"]}, {"conceptId": "C135783", "definition": "Baby Eating Behaviour Questionnaire - Concurrent - My baby takes more than 30 minutes to finish feeding.", "preferredTerm": "BEBQ Concurrent Version - Baby Takes More Than 30 Minutes", "submissionValue": "BEBQ01-Baby Takes More Than 30 Minutes", "synonyms": ["BEBQ01-Baby Takes More Than 30 Minutes"]}, {"conceptId": "C135790", "definition": "Baby Eating Behaviour Questionnaire - Concurrent - If given the chance, my baby would always be feeding.", "preferredTerm": "BEBQ Concurrent Version - Baby Would Always Be Feeding", "submissionValue": "BEBQ01-Baby Would Always Be Feeding", "synonyms": ["BEBQ01-Baby Would Always Be Feeding"]}, {"conceptId": "C135782", "definition": "Baby Eating Behaviour Questionnaire - Concurrent - If allowed to, my baby would take too much milk.", "preferredTerm": "BEBQ Concurrent Version - Baby Would Take Too Much Milk", "submissionValue": "BEBQ01-Baby Would Take Too Much Milk", "synonyms": ["BEBQ01-Baby Would Take Too Much Milk"]}, {"conceptId": "C135787", "definition": "Baby Eating Behaviour Questionnaire - Concurrent - My baby finds it difficult to manage a complete feed.", "preferredTerm": "BEBQ Concurrent Version - Difficult Manage Complete Feed", "submissionValue": "BEBQ01-Difficult Manage Complete Feed", "synonyms": ["BEBQ01-Difficult Manage Complete Feed"]}, {"conceptId": "C135784", "definition": "Baby Eating Behaviour Questionnaire - Concurrent - My baby gets full before taking all the milk I think he/she should have.", "preferredTerm": "BEBQ Concurrent Version - Gets Full Before Taking All Milk", "submissionValue": "BEBQ01-Gets Full Before Taking All Milk", "synonyms": ["BEBQ01-Gets Full Before Taking All Milk"]}, {"conceptId": "C135786", "definition": "Baby Eating Behaviour Questionnaire - Concurrent - Even when my baby has just eaten well he/she is happy to feed again if offered.", "preferredTerm": "BEBQ Concurrent Version - Just Eaten Is Happy to Feed Again", "submissionValue": "BEBQ01-Just Eaten Is Happy to Feed Again", "synonyms": ["BEBQ01-Just Eaten Is Happy to Feed Again"]}, {"conceptId": "C135792", "definition": "Baby Eating Behaviour Questionnaire - Concurrent - My baby can easily take a feed within 30 minutes of the last one.", "preferredTerm": "BEBQ Concurrent Version - Take a Feed Within 30 Minutes", "submissionValue": "BEBQ01-Take a Feed Within 30 Minutes", "synonyms": ["BEBQ01-Take a Feed Within 30 Minutes"]}]}