{"_links": {"parentPackage": {"href": "/mdr/ct/packages/sdtmct-2022-12-16", "title": "SDTM Controlled Terminology Package 52 Effective 2022-12-16", "type": "Terminology"}, "priorVersion": {"href": "/mdr/ct/packages/sdtmct-2022-09-30/codelists/C138257", "title": "CDISC Questionnaire PedsQL Neuromuscular Module Version 3.0 Teen Report Test Code Terminology", "type": "Code List"}, "rootItem": {"href": "/mdr/root/ct/sdtmct/codelists/C138257", "title": "Version-agnostic anchor resource for codelist C138257", "type": "Root Value Domain"}, "self": {"href": "/mdr/ct/packages/sdtmct-2022-12-16/codelists/C138257", "title": "CDISC Questionnaire PedsQL Neuromuscular Module Version 3.0 Teen Report Test Code Terminology", "type": "Code List"}}, "conceptId": "C138257", "definition": "Pediatric Quality of Life Neuromuscular Module Version 3 Teen test code.", "extensible": "false", "name": "Pediatric Quality of Life Neuromuscular Module Version 3 Teen Questionnaire Test Code", "preferredTerm": "CDISC Questionnaire PedsQL Neuromuscular Module Version 3.0 Teen Report Test Code Terminology", "submissionValue": "PQL03TC", "synonyms": ["Pediatric Quality of Life Neuromuscular Module Version 3 Teen Questionnaire Test Code"], "terms": [{"conceptId": "C138832", "definition": "Pediatric Quality of Life Neuromuscular Module Version 3 Teen - In the past one month, how much of a problem has this been for you: It is hard to breathe.", "preferredTerm": "PedsQL Neuromuscular Module Version 3.0 Teen Report - Hard to Breathe", "submissionValue": "PQL0301", "synonyms": ["PQL03-Hard to Breathe"]}, {"conceptId": "C138833", "definition": "Pediatric Quality of Life Neuromuscular Module Version 3 Teen - In the past one month, how much of a problem has this been for you: I get sick easily.", "preferredTerm": "PedsQL Neuromuscular Module Version 3.0 Teen Report - Get Sick Easily", "submissionValue": "PQL0302", "synonyms": ["PQL03-Get Sick Easily"]}, {"conceptId": "C138834", "definition": "Pediatric Quality of Life Neuromuscular Module Version 3 Teen - In the past one month, how much of a problem has this been for you: I get sores and/or rashes.", "preferredTerm": "PedsQL Neuromuscular Module Version 3.0 Teen Report - Get Sores and/or Rashes", "submissionValue": "PQL0303", "synonyms": ["PQL03-Get Sores and/or Rashes"]}, {"conceptId": "C138835", "definition": "Pediatric Quality of Life Neuromuscular Module Version 3 Teen - In the past one month, how much of a problem has this been for you: My legs hurt.", "preferredTerm": "PedsQL Neuromuscular Module Version 3.0 Teen Report - Legs Hurt", "submissionValue": "PQL0304", "synonyms": ["PQL03-Legs Hurt"]}, {"conceptId": "C138836", "definition": "Pediatric Quality of Life Neuromuscular Module Version 3 Teen - In the past one month, how much of a problem has this been for you: I feel tired.", "preferredTerm": "PedsQL Neuromuscular Module Version 3.0 Teen Report - Feel Tired", "submissionValue": "PQL0305", "synonyms": ["PQL03-Feel Tired"]}, {"conceptId": "C138837", "definition": "Pediatric Quality of Life Neuromuscular Module Version 3 Teen - In the past one month, how much of a problem has this been for you: My back feels stiff.", "preferredTerm": "PedsQL Neuromuscular Module Version 3.0 Teen Report - Back Feels Stiff", "submissionValue": "PQL0306", "synonyms": ["PQL03-Back Feels Stiff"]}, {"conceptId": "C138838", "definition": "Pediatric Quality of Life Neuromuscular Module Version 3 Teen - In the past one month, how much of a problem has this been for you: I wake up tired.", "preferredTerm": "PedsQL Neuromuscular Module Version 3.0 Teen Report - Wake Up Tired", "submissionValue": "PQL0307", "synonyms": ["PQL03-Wake Up Tired"]}, {"conceptId": "C138839", "definition": "Pediatric Quality of Life Neuromuscular Module Version 3 Teen - In the past one month, how much of a problem has this been for you: My hands are weak.", "preferredTerm": "PedsQL Neuromuscular Module Version 3.0 Teen Report - Hands Are Weak", "submissionValue": "PQL0308", "synonyms": ["PQL03-Hands Are Weak"]}, {"conceptId": "C138840", "definition": "Pediatric Quality of Life Neuromuscular Module Version 3 Teen - In the past one month, how much of a problem has this been for you: It is hard to use the bathroom.", "preferredTerm": "PedsQL Neuromuscular Module Version 3.0 Teen Report - Hard to Use Bathroom", "submissionValue": "PQL0309", "synonyms": ["PQL03-Hard to Use Bathroom"]}, {"conceptId": "C138841", "definition": "Pediatric Quality of Life Neuromuscular Module Version 3 Teen - In the past one month, how much of a problem has this been for you: It is hard to gain or lose weight when I want to.", "preferredTerm": "PedsQL Neuromuscular Module Version 3.0 Teen Report - Hard to Gain or Lose Weight", "submissionValue": "PQL0310", "synonyms": ["PQL03-Hard to Gain/Lose Weight"]}, {"conceptId": "C138842", "definition": "Pediatric Quality of Life Neuromuscular Module Version 3 Teen - In the past one month, how much of a problem has this been for you: It is hard to use my hands.", "preferredTerm": "PedsQL Neuromuscular Module Version 3.0 Teen Report - Hard to Use Hands", "submissionValue": "PQL0311", "synonyms": ["PQL03-Hard to Use Hands"]}, {"conceptId": "C138843", "definition": "Pediatric Quality of Life Neuromuscular Module Version 3 Teen - In the past one month, how much of a problem has this been for you: It is hard to swallow food.", "preferredTerm": "PedsQL Neuromuscular Module Version 3.0 Teen Report - Hard to Swallow Food", "submissionValue": "PQL0312", "synonyms": ["PQL03-Hard to Swallow Food"]}, {"conceptId": "C138844", "definition": "Pediatric Quality of Life Neuromuscular Module Version 3 Teen - In the past one month, how much of a problem has this been for you: It takes me a long time to bathe or shower.", "preferredTerm": "PedsQL Neuromuscular Module Version 3.0 Teen Report - Long Time to Bathe or Shower", "submissionValue": "PQL0313", "synonyms": ["PQL03-Long Time to Bathe/Shower"]}, {"conceptId": "C138845", "definition": "Pediatric Quality of Life Neuromuscular Module Version 3 Teen - In the past one month, how much of a problem has this been for you: I get hurt accidentally.", "preferredTerm": "PedsQL Neuromuscular Module Version 3.0 Teen Report - Get Hurt Accidentally", "submissionValue": "PQL0314", "synonyms": ["PQL03-Get Hurt Accidentally"]}, {"conceptId": "C138846", "definition": "Pediatric Quality of Life Neuromuscular Module Version 3 Teen - In the past one month, how much of a problem has this been for you: I take a long time to eat.", "preferredTerm": "PedsQL Neuromuscular Module Version 3.0 Teen Report - Take Long Time to Eat", "submissionValue": "PQL0315", "synonyms": ["PQL03-Take Long Time to Eat"]}, {"conceptId": "C138847", "definition": "Pediatric Quality of Life Neuromuscular Module Version 3 Teen - In the past one month, how much of a problem has this been for you: It is hard to turn myself during the night.", "preferredTerm": "PedsQL Neuromuscular Module Version 3.0 Teen Report - Hard to Turn During Night", "submissionValue": "PQL0316", "synonyms": ["PQL03-Hard to Turn During Night"]}, {"conceptId": "C138848", "definition": "Pediatric Quality of Life Neuromuscular Module Version 3 Teen - In the past one month, how much of a problem has this been for you: It is hard for me to go places with my equipment.", "preferredTerm": "PedsQL Neuromuscular Module Version 3.0 Teen Report - Hard to Go Places With Equipment", "submissionValue": "PQL0317", "synonyms": ["PQL03-Hard to Go Places With Equipment"]}, {"conceptId": "C138849", "definition": "Pediatric Quality of Life Neuromuscular Module Version 3 Teen - In the past one month, how much of a problem has this been for you: It is hard for me to tell the doctors and nurses how I feel.", "preferredTerm": "PedsQL Neuromuscular Module Version 3.0 Teen Report - Hard Tell Doctors and Nurses How Feel", "submissionValue": "PQL0318", "synonyms": ["PQL03-Hard Tell Doctors/Nurses How Feel"]}, {"conceptId": "C138850", "definition": "Pediatric Quality of Life Neuromuscular Module Version 3 Teen - In the past one month, how much of a problem has this been for you: It is hard for me to ask the doctors and nurses questions.", "preferredTerm": "PedsQL Neuromuscular Module Version 3.0 Teen Report - Hard Ask Doctors and Nurses Questions", "submissionValue": "PQL0319", "synonyms": ["PQL03-Hard Ask Doctors/Nurses Questions"]}, {"conceptId": "C138851", "definition": "Pediatric Quality of Life Neuromuscular Module Version 3 Teen - In the past one month, how much of a problem has this been for you: It is hard for me to explain my illness to other people.", "preferredTerm": "PedsQL Neuromuscular Module Version 3.0 Teen Report - Hard Explain Illness to People", "submissionValue": "PQL0320", "synonyms": ["PQL03-Hard Explain Illness to People"]}, {"conceptId": "C138852", "definition": "Pediatric Quality of Life Neuromuscular Module Version 3 Teen - In the past one month, how much of a problem has this been for you: It is hard for my family to plan activities like vacations.", "preferredTerm": "PedsQL Neuromuscular Module Version 3.0 Teen Report - Hard for Family to Plan Activities", "submissionValue": "PQL0321", "synonyms": ["PQL03-Hard for Family to Plan Activities"]}, {"conceptId": "C138853", "definition": "Pediatric Quality of Life Neuromuscular Module Version 3 Teen - In the past one month, how much of a problem has this been for you: It is hard for my family to get enough rest.", "preferredTerm": "PedsQL Neuromuscular Module Version 3.0 Teen Report - Hard for Family to Rest", "submissionValue": "PQL0322", "synonyms": ["PQL03-Hard for Family to Rest"]}, {"conceptId": "C138854", "definition": "Pediatric Quality of Life Neuromuscular Module Version 3 Teen - In the past one month, how much of a problem has this been for you: I think money is a problem in our family.", "preferredTerm": "PedsQL Neuromuscular Module Version 3.0 Teen Report - Money Problem in Our Family", "submissionValue": "PQL0323", "synonyms": ["PQL03-Money Problem in Our Family"]}, {"conceptId": "C138855", "definition": "Pediatric Quality of Life Neuromuscular Module Version 3 Teen - In the past one month, how much of a problem has this been for you: I think my family has a lot of problems.", "preferredTerm": "PedsQL Neuromuscular Module Version 3.0 Teen Report - Family Has Lot of Problems", "submissionValue": "PQL0324", "synonyms": ["PQL03-Family Has Lot of Problems"]}, {"conceptId": "C138856", "definition": "Pediatric Quality of Life Neuromuscular Module Version 3 Teen - In the past one month, how much of a problem has this been for you: I do not have the equipment I need.", "preferredTerm": "PedsQL Neuromuscular Module Version 3.0 Teen Report - Do Not Have Equipment Need", "submissionValue": "PQL0325", "synonyms": ["PQL03-Do Not Have Equipment Need"]}]}