{"_links": {"parentPackage": {"href": "/mdr/ct/packages/sdtmct-2022-12-16", "title": "SDTM Controlled Terminology Package 52 Effective 2022-12-16", "type": "Terminology"}, "priorVersion": {"href": "/mdr/ct/packages/sdtmct-2022-09-30/codelists/C141656", "title": "CDISC Functional Test 10-Meter Walk/Run Test Name Terminology", "type": "Code List"}, "rootItem": {"href": "/mdr/root/ct/sdtmct/codelists/C141656", "title": "Version-agnostic anchor resource for codelist C141656", "type": "Root Value Domain"}, "self": {"href": "/mdr/ct/packages/sdtmct-2022-12-16/codelists/C141656", "title": "CDISC Functional Test 10-Meter Walk/Run Test Name Terminology", "type": "Code List"}}, "conceptId": "C141656", "definition": "10-Meter Walk/Run test name.", "extensible": "false", "name": "10-Meter Walk/Run Functional Test Test Name", "preferredTerm": "CDISC Functional Test 10-Meter Walk/Run Test Name Terminology", "submissionValue": "TENMW1TN", "synonyms": ["10-Meter Walk/Run Functional Test Test Name"], "terms": [{"conceptId": "C141701", "definition": "10-Meter Walk/Run - Test grade.", "preferredTerm": "10-Meter Walk/Run - Test Grade", "submissionValue": "TENMW1-Test Grade", "synonyms": ["TENMW1-Test Grade"]}, {"conceptId": "C141700", "definition": "10-Meter Walk/Run - If yes, time to walk or run 10 meters.", "preferredTerm": "10-Meter Walk/Run - Time to Walk/Run 10 Meters", "submissionValue": "TENMW1-Time to Walk/Run 10 Meters", "synonyms": ["TENMW1-Time to Walk/Run 10 Meters"]}, {"conceptId": "C174106", "definition": "10-Meter Walk/Run - Was the 10-meter walk/run performed?", "preferredTerm": "10-Meter Walk/Run - Was Walk/Run Performed", "submissionValue": "TENMW1-Was Walk/Run Performed", "synonyms": ["TENMW1-Was Walk/Run Performed"]}, {"conceptId": "C147592", "definition": "10-Meter Walk/Run - If yes, did subject wear orthoses?", "preferredTerm": "10-Meter Walk/Run - Wear Orthoses", "submissionValue": "TENMW1-Wear Orthoses", "synonyms": ["TENMW1-Wear Orthoses"]}]}