{"_links": {"parentPackage": {"href": "/mdr/ct/packages/sdtmct-2022-12-16", "title": "SDTM Controlled Terminology Package 52 Effective 2022-12-16", "type": "Terminology"}, "priorVersion": {"href": "/mdr/ct/packages/sdtmct-2022-09-30/codelists/C150779", "title": "CDISC Questionnaire FACT/GOG-NTX Version 4 Test Name Terminology", "type": "Code List"}, "rootItem": {"href": "/mdr/root/ct/sdtmct/codelists/C150779", "title": "Version-agnostic anchor resource for codelist C150779", "type": "Root Value Domain"}, "self": {"href": "/mdr/ct/packages/sdtmct-2022-12-16/codelists/C150779", "title": "CDISC Questionnaire FACT/GOG-NTX Version 4 Test Name Terminology", "type": "Code List"}}, "conceptId": "C150779", "definition": "Functional Assessment of Cancer Therapy/Gynecologic Oncology Group-Neurotoxicity Version 4 test name.", "extensible": "false", "name": "Functional Assessment of Cancer Therapy/Gynecologic Oncology Group-Neurotoxicity Version 4 Questionnaire Test Name", "preferredTerm": "CDISC Questionnaire FACT/GOG-NTX Version 4 Test Name Terminology", "submissionValue": "FAC057TN", "synonyms": ["Functional Assessment of Cancer Therapy/Gynecologic Oncology Group-Neurotoxicity Version 4 Questionnaire Test Name"], "terms": [{"conceptId": "C151200", "definition": "Functional Assessment of Cancer Therapy/Gynecologic Oncology Group-Neurotoxicity Version 4 - Physical Well-Being: I am bothered by side effects of treatment.", "preferredTerm": "FACT/GOG-NTX Version 4 - Bothered by Treatment Side Effect", "submissionValue": "FAC057-Bothered by Treatment Side Effect", "synonyms": ["FAC057-Bothered by Treatment Side Effect"]}, {"conceptId": "C151222", "definition": "Functional Assessment of Cancer Therapy/Gynecologic Oncology Group-Neurotoxicity Version 4 - Functional Well-Being: I am content with the quality of my life right now.", "preferredTerm": "FACT/GOG-NTX Version 4 - Content With Quality of My Life", "submissionValue": "FAC057-Content With Quality of My Life", "synonyms": ["FAC057-Content With Quality of My Life"]}, {"conceptId": "C151221", "definition": "Functional Assessment of Cancer Therapy/Gynecologic Oncology Group-Neurotoxicity Version 4 - Functional Well-Being: I am enjoying the things I usually do for fun.", "preferredTerm": "FACT/GOG-NTX Version 4 - Enjoy Things I Usually Do for Fun", "submissionValue": "FAC057-Enjoy Things I Usually Do for Fun", "synonyms": ["FAC057-Enjoy Things I Usually Do for Fun"]}, {"conceptId": "C151204", "definition": "Functional Assessment of Cancer Therapy/Gynecologic Oncology Group-Neurotoxicity Version 4 - Social/Family Well-Being: I get emotional support from my family.", "preferredTerm": "FACT/GOG-NTX Version 4 - Get Emotional Support From Family", "submissionValue": "FAC057-Get Emotional Support From Family", "synonyms": ["FAC057-Get Emotional Support From Family"]}, {"conceptId": "C151230", "definition": "Functional Assessment of Cancer Therapy/Gynecologic Oncology Group-Neurotoxicity Version 4 - Additional Concerns: I get a ringing or buzzing in my ears.", "preferredTerm": "FACT/GOG-NTX Version 4 - Get Ringing or Buzzing in My Ears", "submissionValue": "FAC057-Get Ringing or Buzzing in My Ears", "synonyms": ["FAC057-Get Ringing or Buzzing in My Ears"]}, {"conceptId": "C151227", "definition": "Functional Assessment of Cancer Therapy/Gynecologic Oncology Group-Neurotoxicity Version 4 - Additional Concerns: I have joint pain or muscle cramps.", "preferredTerm": "FACT/GOG-NTX Version 4 - Have Joint Pain or Muscle Cramps", "submissionValue": "FAC057-Have Joint Pain or Muscle Cramps", "synonyms": ["FAC057-Have Joint Pain or Muscle Cramps"]}, {"conceptId": "C151218", "definition": "Functional Assessment of Cancer Therapy/Gynecologic Oncology Group-Neurotoxicity Version 4 - Functional Well-Being: I am able to enjoy life.", "preferredTerm": "FACT/GOG-NTX Version 4 - I Am Able to Enjoy Life", "submissionValue": "FAC057-I Am Able to Enjoy Life", "synonyms": ["FAC057-I Am Able to Enjoy Life"]}, {"conceptId": "C151216", "definition": "Functional Assessment of Cancer Therapy/Gynecologic Oncology Group-Neurotoxicity Version 4 - Functional Well-Being: I am able to work (include work at home).", "preferredTerm": "FACT/GOG-NTX Version 4 - I Am Able to Work", "submissionValue": "FAC057-I Am Able to Work", "synonyms": ["FAC057-I Am Able to Work"]}, {"conceptId": "C151202", "definition": "Functional Assessment of Cancer Therapy/Gynecologic Oncology Group-Neurotoxicity Version 4 - Physical Well-Being: I am forced to spend time in bed.", "preferredTerm": "FACT/GOG-NTX Version 4 - I Am Forced to Spend Time in Bed", "submissionValue": "FAC057-I Am Forced to Spend Time in Bed", "synonyms": ["FAC057-I Am Forced to Spend Time in Bed"]}, {"conceptId": "C151209", "definition": "Functional Assessment of Cancer Therapy/Gynecologic Oncology Group-Neurotoxicity Version 4 - Social/Family Well-Being: I am satisfied with my sex life.", "preferredTerm": "FACT/GOG-NTX Version 4 - I Am Satisfied With My Sex Life", "submissionValue": "FAC057-I Am Satisfied With My Sex Life", "synonyms": ["FAC057-I Am Satisfied With My Sex Life"]}, {"conceptId": "C151220", "definition": "Functional Assessment of Cancer Therapy/Gynecologic Oncology Group-Neurotoxicity Version 4 - Functional Well-Being: I am sleeping well.", "preferredTerm": "FACT/GOG-NTX Version 4 - I Am Sleeping Well", "submissionValue": "FAC057-I Am Sleeping Well", "synonyms": ["FAC057-I Am Sleeping Well"]}, {"conceptId": "C151203", "definition": "Functional Assessment of Cancer Therapy/Gynecologic Oncology Group-Neurotoxicity Version 4 - Social/Family Well-Being: I feel close to my friends.", "preferredTerm": "FACT/GOG-NTX Version 4 - I Feel Close to My Friends", "submissionValue": "FAC057-I Feel Close to My Friends", "synonyms": ["FAC057-I Feel Close to My Friends"]}, {"conceptId": "C151208", "definition": "Functional Assessment of Cancer Therapy/Gynecologic Oncology Group-Neurotoxicity Version 4 - Social/Family Well-Being: I feel close to my partner (or the person who is my main support).", "preferredTerm": "FACT/GOG-NTX Version 4 - I Feel Close to My Partner", "submissionValue": "FAC057-I Feel Close to My Partner", "synonyms": ["FAC057-I Feel Close to My Partner"]}, {"conceptId": "C151226", "definition": "Functional Assessment of Cancer Therapy/Gynecologic Oncology Group-Neurotoxicity Version 4 - Additional Concerns: I feel discomfort in my feet.", "preferredTerm": "FACT/GOG-NTX Version 4 - I Feel Discomfort in My Feet", "submissionValue": "FAC057-I Feel Discomfort in My Feet", "synonyms": ["FAC057-I Feel Discomfort in My Feet"]}, {"conceptId": "C151225", "definition": "Functional Assessment of Cancer Therapy/Gynecologic Oncology Group-Neurotoxicity Version 4 - Additional Concerns: I feel discomfort in my hands.", "preferredTerm": "FACT/GOG-NTX Version 4 - I Feel Discomfort in My Hands", "submissionValue": "FAC057-I Feel Discomfort in My Hands", "synonyms": ["FAC057-I Feel Discomfort in My Hands"]}, {"conceptId": "C151201", "definition": "Functional Assessment of Cancer Therapy/Gynecologic Oncology Group-Neurotoxicity Version 4 - Physical Well-Being: I feel ill.", "preferredTerm": "FACT/GOG-NTX Version 4 - I Feel Ill", "submissionValue": "FAC057-I Feel Ill", "synonyms": ["FAC057-I Feel Ill"]}, {"conceptId": "C151213", "definition": "Functional Assessment of Cancer Therapy/Gynecologic Oncology Group-Neurotoxicity Version 4 - Emotional Well-Being: I feel nervous.", "preferredTerm": "FACT/GOG-NTX Version 4 - I Feel Nervous", "submissionValue": "FAC057-I Feel Nervous", "synonyms": ["FAC057-I Feel Nervous"]}, {"conceptId": "C151210", "definition": "Functional Assessment of Cancer Therapy/Gynecologic Oncology Group-Neurotoxicity Version 4 - Emotional Well-Being: I feel sad.", "preferredTerm": "FACT/GOG-NTX Version 4 - I Feel Sad", "submissionValue": "FAC057-I Feel Sad", "synonyms": ["FAC057-I Feel Sad"]}, {"conceptId": "C151228", "definition": "Functional Assessment of Cancer Therapy/Gynecologic Oncology Group-Neurotoxicity Version 4 - Additional Concerns: I feel weak all over.", "preferredTerm": "FACT/GOG-NTX Version 4 - I Feel Weak All Over", "submissionValue": "FAC057-I Feel Weak All Over", "synonyms": ["FAC057-I Feel Weak All Over"]}, {"conceptId": "C151205", "definition": "Functional Assessment of Cancer Therapy/Gynecologic Oncology Group-Neurotoxicity Version 4 - Social/Family Well-Being: I get support from my friends.", "preferredTerm": "FACT/GOG-NTX Version 4 - I Get Support From My Friends", "submissionValue": "FAC057-I Get Support From My Friends", "synonyms": ["FAC057-I Get Support From My Friends"]}, {"conceptId": "C151196", "definition": "Functional Assessment of Cancer Therapy/Gynecologic Oncology Group-Neurotoxicity Version 4 - Physical Well-Being: I have a lack of energy.", "preferredTerm": "FACT/GOG-NTX Version 4 - I Have a Lack of Energy", "submissionValue": "FAC057-I Have a Lack of Energy", "synonyms": ["FAC057-I Have a Lack of Energy"]}, {"conceptId": "C151219", "definition": "Functional Assessment of Cancer Therapy/Gynecologic Oncology Group-Neurotoxicity Version 4 - Functional Well-Being: I have accepted my illness.", "preferredTerm": "FACT/GOG-NTX Version 4 - I Have Accepted My Illness", "submissionValue": "FAC057-I Have Accepted My Illness", "synonyms": ["FAC057-I Have Accepted My Illness"]}, {"conceptId": "C151197", "definition": "Functional Assessment of Cancer Therapy/Gynecologic Oncology Group-Neurotoxicity Version 4 - Physical Well-Being: I have nausea.", "preferredTerm": "FACT/GOG-NTX Version 4 - I Have Nausea", "submissionValue": "FAC057-I Have Nausea", "synonyms": ["FAC057-I Have Nausea"]}, {"conceptId": "C151199", "definition": "Functional Assessment of Cancer Therapy/Gynecologic Oncology Group-Neurotoxicity Version 4 - Physical Well-Being: I have pain.", "preferredTerm": "FACT/GOG-NTX Version 4 - I Have Pain", "submissionValue": "FAC057-I Have Pain", "synonyms": ["FAC057-I Have Pain"]}, {"conceptId": "C151231", "definition": "Functional Assessment of Cancer Therapy/Gynecologic Oncology Group-Neurotoxicity Version 4 - Additional Concerns: I have trouble buttoning buttons.", "preferredTerm": "FACT/GOG-NTX Version 4 - I Have Trouble Buttoning Buttons", "submissionValue": "FAC057-I Have Trouble Buttoning Buttons", "synonyms": ["FAC057-I Have Trouble Buttoning Buttons"]}, {"conceptId": "C151229", "definition": "Functional Assessment of Cancer Therapy/Gynecologic Oncology Group-Neurotoxicity Version 4 - Additional Concerns: I have trouble hearing.", "preferredTerm": "FACT/GOG-NTX Version 4 - I Have Trouble Hearing", "submissionValue": "FAC057-I Have Trouble Hearing", "synonyms": ["FAC057-I Have Trouble Hearing"]}, {"conceptId": "C151233", "definition": "Functional Assessment of Cancer Therapy/Gynecologic Oncology Group-Neurotoxicity Version 4 - Additional Concerns: I have trouble walking.", "preferredTerm": "FACT/GOG-NTX Version 4 - I Have Trouble Walking", "submissionValue": "FAC057-I Have Trouble Walking", "synonyms": ["FAC057-I Have Trouble Walking"]}, {"conceptId": "C151214", "definition": "Functional Assessment of Cancer Therapy/Gynecologic Oncology Group-Neurotoxicity Version 4 - Emotional Well-Being: I worry about dying.", "preferredTerm": "FACT/GOG-NTX Version 4 - I Worry About Dying", "submissionValue": "FAC057-I Worry About Dying", "synonyms": ["FAC057-I Worry About Dying"]}, {"conceptId": "C151212", "definition": "Functional Assessment of Cancer Therapy/Gynecologic Oncology Group-Neurotoxicity Version 4 - Emotional Well-Being: I am losing hope in the fight against my illness.", "preferredTerm": "FACT/GOG-NTX Version 4 - Losing Hope Against Illness", "submissionValue": "FAC057-Losing Hope Against Illness", "synonyms": ["FAC057-Losing Hope Against Illness"]}, {"conceptId": "C151206", "definition": "Functional Assessment of Cancer Therapy/Gynecologic Oncology Group-Neurotoxicity Version 4 - Social/Family Well-Being: My family has accepted my illness.", "preferredTerm": "FACT/GOG-NTX Version 4 - My Family Has Accepted My Illness", "submissionValue": "FAC057-My Family Has Accepted My Illness", "synonyms": ["FAC057-My Family Has Accepted My Illness"]}, {"conceptId": "C151217", "definition": "Functional Assessment of Cancer Therapy/Gynecologic Oncology Group-Neurotoxicity Version 4 - Functional Well-Being: My work (include work at home) is fulfilling.", "preferredTerm": "FACT/GOG-NTX Version 4 - My Work Is Fulfilling", "submissionValue": "FAC057-My Work Is Fulfilling", "synonyms": ["FAC057-My Work Is Fulfilling"]}, {"conceptId": "C151224", "definition": "Functional Assessment of Cancer Therapy/Gynecologic Oncology Group-Neurotoxicity Version 4 - Additional Concerns: I have numbness or tingling in my feet.", "preferredTerm": "FACT/GOG-NTX Version 4 - Numbness or Tingling in My Feet", "submissionValue": "FAC057-Numbness or Tingling in My Feet", "synonyms": ["FAC057-Numbness or Tingling in My Feet"]}, {"conceptId": "C151223", "definition": "Functional Assessment of Cancer Therapy/Gynecologic Oncology Group-Neurotoxicity Version 4 - Additional Concerns: I have numbness or tingling in my hands.", "preferredTerm": "FACT/GOG-NTX Version 4 - Numbness or Tingling in My Hands", "submissionValue": "FAC057-Numbness or Tingling in My Hands", "synonyms": ["FAC057-Numbness or Tingling in My Hands"]}, {"conceptId": "C151207", "definition": "Functional Assessment of Cancer Therapy/Gynecologic Oncology Group-Neurotoxicity Version 4 - Social/Family Well-Being: I am satisfied with family communication about my illness.", "preferredTerm": "FACT/GOG-NTX Version 4 - Satisfied Communication Illness", "submissionValue": "FAC057-Satisfied Communication Illness", "synonyms": ["FAC057-Satisfied Communication Illness"]}, {"conceptId": "C151211", "definition": "Functional Assessment of Cancer Therapy/Gynecologic Oncology Group-Neurotoxicity Version 4 - Emotional Well-Being: I am satisfied with how I am coping with my illness.", "preferredTerm": "FACT/GOG-NTX Version 4 - Satisfied With How I Am Coping", "submissionValue": "FAC057-Satisfied With How I Am Coping", "synonyms": ["FAC057-Satisfied With How I Am Coping"]}, {"conceptId": "C151232", "definition": "Functional Assessment of Cancer Therapy/Gynecologic Oncology Group-Neurotoxicity Version 4 - Additional Concerns: I have trouble feeling the shape of small objects when they are in my hand.", "preferredTerm": "FACT/GOG-NTX Version 4 - Trouble Feeling Shape of Objects", "submissionValue": "FAC057-Trouble Feeling Shape of Objects", "synonyms": ["FAC057-Trouble Feeling Shape of Objects"]}, {"conceptId": "C151198", "definition": "Functional Assessment of Cancer Therapy/Gynecologic Oncology Group-Neurotoxicity Version 4 - Physical Well-Being: Because of my physical condition, I have trouble meeting the needs of my family.", "preferredTerm": "FACT/GOG-NTX Version 4 - Trouble Meeting Needs of Family", "submissionValue": "FAC057-Trouble Meeting Needs of Family", "synonyms": ["FAC057-Trouble Meeting Needs of Family"]}, {"conceptId": "C151215", "definition": "Functional Assessment of Cancer Therapy/Gynecologic Oncology Group-Neurotoxicity Version 4 - Emotional Well-Being: I worry that my condition will get worse.", "preferredTerm": "FACT/GOG-NTX Version 4 - Worry My Condition Will Get Worse", "submissionValue": "FAC057-Worry My Condition Will Get Worse", "synonyms": ["FAC057-Worry My Condition Will Get Worse"]}]}