{"_links": {"parentPackage": {"href": "/mdr/ct/packages/sdtmct-2022-12-16", "title": "SDTM Controlled Terminology Package 52 Effective 2022-12-16", "type": "Terminology"}, "priorVersion": {"href": "/mdr/ct/packages/sdtmct-2022-09-30/codelists/C154687", "title": "CDISC SDTM Lung Cancer Findings About Test Code Terminology", "type": "Code List"}, "rootItem": {"href": "/mdr/root/ct/sdtmct/codelists/C154687", "title": "Version-agnostic anchor resource for codelist C154687", "type": "Root Value Domain"}, "self": {"href": "/mdr/ct/packages/sdtmct-2022-12-16/codelists/C154687", "title": "CDISC SDTM Lung Cancer Findings About Test Code Terminology", "type": "Code List"}}, "conceptId": "C154687", "definition": "Terminology relevant to the test codes that describe findings about a lung cancer event or intervention.", "extensible": "true", "name": "Lung Cancer Findings About Test Code", "preferredTerm": "CDISC SDTM Lung Cancer Findings About Test Code Terminology", "submissionValue": "LUFATSCD", "synonyms": ["Lung Cancer Findings About Test Code"], "terms": [{"conceptId": "C154860", "definition": "An indication as to whether the primary site of cancer is known.", "preferredTerm": "Cancer Primary Site Known Indicator", "submissionValue": "ORCANIND", "synonyms": ["Origin of Cancer Known Ind", "Origin of Cancer Known Indicator"]}, {"conceptId": "C154861", "definition": "An indication as to whether the tumor has been resected.", "preferredTerm": "Tumor Resected Indicator", "submissionValue": "RESCTIND", "synonyms": ["Resected Tumor Ind", "Resected Tumor Indicator"]}]}