{"_links": {"parentPackage": {"href": "/mdr/ct/packages/sdtmct-2022-12-16", "title": "SDTM Controlled Terminology Package 52 Effective 2022-12-16", "type": "Terminology"}, "priorVersion": {"href": "/mdr/ct/packages/sdtmct-2022-09-30/codelists/C161617", "title": "CDISC Questionnaire EORTC QLQ-C15-PAL Version 1 Test Code Terminology", "type": "Code List"}, "rootItem": {"href": "/mdr/root/ct/sdtmct/codelists/C161617", "title": "Version-agnostic anchor resource for codelist C161617", "type": "Root Value Domain"}, "self": {"href": "/mdr/ct/packages/sdtmct-2022-12-16/codelists/C161617", "title": "CDISC Questionnaire EORTC QLQ-C15-PAL Version 1 Test Code Terminology", "type": "Code List"}}, "conceptId": "C161617", "definition": "European Organisation for the Research and Treatment of Cancer Quality of Life Questionnaire - Palliative Care Version 1.0 test code.", "extensible": "false", "name": "European Organisation for the Research and Treatment of Cancer Quality of Life Questionnaire - Palliative Care Version 1.0 Questionnaire Test Code", "preferredTerm": "CDISC Questionnaire EORTC QLQ-C15-PAL Version 1 Test Code Terminology", "submissionValue": "EOR02TC", "synonyms": ["European Organisation for the Research and Treatment of Cancer Quality of Life Questionnaire - Palliative Care Version 1.0 Questionnaire Test Code"], "terms": [{"conceptId": "C161659", "definition": "European Organisation for the Research and Treatment of Cancer Quality of Life Questionnaire - Palliative Care Version 1.0 - Do you have any trouble taking a short walk outside of the house?", "preferredTerm": "EORTC QLQ-C15-PAL Version 1 - Trouble Taking Short Walk Outside", "submissionValue": "EOR0201", "synonyms": ["EOR02-Trouble Taking Short Walk Outside"]}, {"conceptId": "C161660", "definition": "European Organisation for the Research and Treatment of Cancer Quality of Life Questionnaire - Palliative Care Version 1.0 - Do you need to stay in bed or a chair during the day?", "preferredTerm": "EORTC QLQ-C15-PAL Version 1 - Stay in Bed or Chair During the Day", "submissionValue": "EOR0202", "synonyms": ["EOR02-Stay in Bed/Chair During the Day"]}, {"conceptId": "C161661", "definition": "European Organisation for the Research and Treatment of Cancer Quality of Life Questionnaire - Palliative Care Version 1.0 - Do you need help with eating, dressing, washing yourself or using the toilet?", "preferredTerm": "EORTC QLQ-C15-PAL Version 1 - Need Help Eating, Dressing, Washing", "submissionValue": "EOR0203", "synonyms": ["EOR02-Need Help Eating/Dressing/Washing"]}, {"conceptId": "C161662", "definition": "European Organisation for the Research and Treatment of Cancer Quality of Life Questionnaire - Palliative Care Version 1.0 - During the past week: Were you short of breath?", "preferredTerm": "EORTC QLQ-C15-PAL Version 1 - Were You Short of Breath", "submissionValue": "EOR0204", "synonyms": ["EOR02-Were You Short of Breath"]}, {"conceptId": "C161663", "definition": "European Organisation for the Research and Treatment of Cancer Quality of Life Questionnaire - Palliative Care Version 1.0 - During the past week: Have you had pain?", "preferredTerm": "EORTC QLQ-C15-PAL Version 1 - Have You Had Pain", "submissionValue": "EOR0205", "synonyms": ["EOR02-Have You Had Pain"]}, {"conceptId": "C161664", "definition": "European Organisation for the Research and Treatment of Cancer Quality of Life Questionnaire - Palliative Care Version 1.0 - During the past week: Have you had trouble sleeping?", "preferredTerm": "EORTC QLQ-C15-PAL Version 1 - Have You Had Trouble Sleeping", "submissionValue": "EOR0206", "synonyms": ["EOR02-Have You Had Trouble Sleeping"]}, {"conceptId": "C161665", "definition": "European Organisation for the Research and Treatment of Cancer Quality of Life Questionnaire - Palliative Care Version 1.0 - During the past week: Have you felt weak?", "preferredTerm": "EORTC QLQ-C15-PAL Version 1 - Have You Felt Weak", "submissionValue": "EOR0207", "synonyms": ["EOR02-Have You Felt Weak"]}, {"conceptId": "C161666", "definition": "European Organisation for the Research and Treatment of Cancer Quality of Life Questionnaire - Palliative Care Version 1.0 - During the past week: Have you lacked appetite?", "preferredTerm": "EORTC QLQ-C15-PAL Version 1 - Have You Lacked Appetite", "submissionValue": "EOR0208", "synonyms": ["EOR02-Have You Lacked Appetite"]}, {"conceptId": "C161667", "definition": "European Organisation for the Research and Treatment of Cancer Quality of Life Questionnaire - Palliative Care Version 1.0 - During the past week: Have you felt nauseated?", "preferredTerm": "EORTC QLQ-C15-PAL Version 1 - Have You Felt Nauseated", "submissionValue": "EOR0209", "synonyms": ["EOR02-Have You Felt Nauseated"]}, {"conceptId": "C161668", "definition": "European Organisation for the Research and Treatment of Cancer Quality of Life Questionnaire - Palliative Care Version 1.0 - During the past week: Have you been constipated?", "preferredTerm": "EORTC QLQ-C15-PAL Version 1 - Have You Been Constipated", "submissionValue": "EOR0210", "synonyms": ["EOR02-Have You Been Constipated"]}, {"conceptId": "C161669", "definition": "European Organisation for the Research and Treatment of Cancer Quality of Life Questionnaire - Palliative Care Version 1.0 - During the past week: Were you tired?", "preferredTerm": "EORTC QLQ-C15-PAL Version 1 - Were You Tired", "submissionValue": "EOR0211", "synonyms": ["EOR02-Were You Tired"]}, {"conceptId": "C161670", "definition": "European Organisation for the Research and Treatment of Cancer Quality of Life Questionnaire - Palliative Care Version 1.0 - During the past week: Did pain interfere with your daily activities?", "preferredTerm": "EORTC QLQ-C15-PAL Version 1 - Pain Interfere Daily Activities", "submissionValue": "EOR0212", "synonyms": ["EOR02-Pain Interfere Daily Activities"]}, {"conceptId": "C161671", "definition": "European Organisation for the Research and Treatment of Cancer Quality of Life Questionnaire - Palliative Care Version 1.0 - During the past week: Did you feel tense?", "preferredTerm": "EORTC QLQ-C15-PAL Version 1 - Did You Feel Tense", "submissionValue": "EOR0213", "synonyms": ["EOR02-Did You Feel Tense"]}, {"conceptId": "C161672", "definition": "European Organisation for the Research and Treatment of Cancer Quality of Life Questionnaire - Palliative Care Version 1.0 - During the past week: Did you feel depressed?", "preferredTerm": "EORTC QLQ-C15-PAL Version 1 - Did You Feel Depressed", "submissionValue": "EOR0214", "synonyms": ["EOR02-Did You Feel Depressed"]}, {"conceptId": "C161673", "definition": "European Organisation for the Research and Treatment of Cancer Quality of Life Questionnaire - Palliative Care Version 1.0 - How would you rate your overall quality of life during the past week?", "preferredTerm": "EORTC QLQ-C15-PAL Version 1 - Rate Your Overall Quality of Life", "submissionValue": "EOR0215", "synonyms": ["EOR02-Rate Your Overall Quality of Life"]}]}