{"_links": {"parentPackage": {"href": "/mdr/ct/packages/sdtmct-2022-12-16", "title": "SDTM Controlled Terminology Package 52 Effective 2022-12-16", "type": "Terminology"}, "priorVersion": {"href": "/mdr/ct/packages/sdtmct-2022-09-30/codelists/C166190", "title": "CDISC Functional Test RFWT Version 1 Test Code Terminology", "type": "Code List"}, "rootItem": {"href": "/mdr/root/ct/sdtmct/codelists/C166190", "title": "Version-agnostic anchor resource for codelist C166190", "type": "Root Value Domain"}, "self": {"href": "/mdr/ct/packages/sdtmct-2022-12-16/codelists/C166190", "title": "CDISC Functional Test RFWT Version 1 Test Code Terminology", "type": "Code List"}}, "conceptId": "C166190", "definition": "Rockport One Mile Walk Test Version 1.0 test code.", "extensible": "false", "name": "Rockport One Mile Walk Test Version 1.0 Functional Test Test Code", "preferredTerm": "CDISC Functional Test RFWT Version 1 Test Code Terminology", "submissionValue": "ROCK01TC", "synonyms": ["Rockport One Mile Walk Test Version 1.0 Functional Test Test Code"], "terms": [{"conceptId": "C166338", "definition": "Rockport One Mile Walk Test - Time to complete one-mile walk.", "preferredTerm": "RFWT Version 1 - Time To Complete One Mile Walk", "submissionValue": "ROCK0101", "synonyms": ["ROCK01-Time To Complete One Mile Walk"]}]}