{"_links": {"parentPackage": {"href": "/mdr/ct/packages/sdtmct-2022-12-16", "title": "SDTM Controlled Terminology Package 52 Effective 2022-12-16", "type": "Terminology"}, "priorVersion": {"href": "/mdr/ct/packages/sdtmct-2022-09-30/codelists/C171408", "title": "CDISC Clinical Classification RASS Test Name Terminology", "type": "Code List"}, "rootItem": {"href": "/mdr/root/ct/sdtmct/codelists/C171408", "title": "Version-agnostic anchor resource for codelist C171408", "type": "Root Value Domain"}, "self": {"href": "/mdr/ct/packages/sdtmct-2022-12-16/codelists/C171408", "title": "CDISC Clinical Classification RASS Test Name Terminology", "type": "Code List"}}, "conceptId": "C171408", "definition": "Richmond Agitation-Sedation Scale test name.", "extensible": "false", "name": "Richmond Agitation-Sedation Scale Clinical Classification Test Name", "preferredTerm": "CDISC Clinical Classification RASS Test Name Terminology", "submissionValue": "RASS01TN", "synonyms": ["Richmond Agitation-Sedation Scale Clinical Classification Test Name"], "terms": [{"conceptId": "C171419", "definition": "Richmond Agitation-Sedation Scale - Score.", "preferredTerm": "RASS - Score", "submissionValue": "RASS01-Score", "synonyms": ["RASS01-Score"]}]}