{"_links": {"parentPackage": {"href": "/mdr/ct/packages/sdtmct-2022-12-16", "title": "SDTM Controlled Terminology Package 52 Effective 2022-12-16", "type": "Terminology"}, "priorVersion": {"href": "/mdr/ct/packages/sdtmct-2022-09-30/codelists/C171409", "title": "CDISC Clinical Classification RASS Test Code Terminology", "type": "Code List"}, "rootItem": {"href": "/mdr/root/ct/sdtmct/codelists/C171409", "title": "Version-agnostic anchor resource for codelist C171409", "type": "Root Value Domain"}, "self": {"href": "/mdr/ct/packages/sdtmct-2022-12-16/codelists/C171409", "title": "CDISC Clinical Classification RASS Test Code Terminology", "type": "Code List"}}, "conceptId": "C171409", "definition": "Richmond Agitation-Sedation Scale test code.", "extensible": "false", "name": "Richmond Agitation-Sedation Scale Clinical Classification Test Code", "preferredTerm": "CDISC Clinical Classification RASS Test Code Terminology", "submissionValue": "RASS01TC", "synonyms": ["Richmond Agitation-Sedation Scale Clinical Classification Test Code"], "terms": [{"conceptId": "C171419", "definition": "Richmond Agitation-Sedation Scale - Score.", "preferredTerm": "RASS - Score", "submissionValue": "RASS0101", "synonyms": ["RASS01-Score"]}]}