{"_links": {"parentPackage": {"href": "/mdr/ct/packages/sdtmct-2022-12-16", "title": "SDTM Controlled Terminology Package 52 Effective 2022-12-16", "type": "Terminology"}, "priorVersion": {"href": "/mdr/ct/packages/sdtmct-2022-09-30/codelists/C172330", "title": "CDISC SDTM PK Analytical Method Terminology", "type": "Code List"}, "rootItem": {"href": "/mdr/root/ct/sdtmct/codelists/C172330", "title": "Version-agnostic anchor resource for codelist C172330", "type": "Root Value Domain"}, "self": {"href": "/mdr/ct/packages/sdtmct-2022-12-16/codelists/C172330", "title": "CDISC SDTM PK Analytical Method Terminology", "type": "Code List"}}, "conceptId": "C172330", "definition": "Terminology relevant to the formula or analysis method associated with a pharmacokinetic parameter calculation.", "extensible": "true", "name": "PK Analytical Method", "preferredTerm": "CDISC SDTM PK Analytical Method Terminology", "submissionValue": "PKANMET", "synonyms": ["PK Analytical Method"], "terms": [{"conceptId": "C172579", "definition": "An AUC calculation method that utilizes the linear trapezoidal interpolation rule up to the maximum concentration (Cmax) and Logarithmic trapezoidal interpolation for the remainder of the concentration curve.", "preferredTerm": "Linear-Logarithmic Trapezoidal Method", "submissionValue": "LIN-LOG TRAPEZOIDAL METHOD", "synonyms": ["Linear-Logarithmic Trapezoidal Method"]}, {"conceptId": "C172582", "definition": "An AUC calculation method that utilizes the linear trapezoidal interpolation rule for the entire concentration curve, except when partial areas are selected with no measured endpoint, then logarithmic interpolation is used to calculate the missing data.", "preferredTerm": "Linear Trapezoidal - Log Interpolation Method", "submissionValue": "LINEAR TRAPEZOIDAL - LOG INTERPOLATION METHOD", "synonyms": ["Linear Trapezoidal - Logarithmic Interpolation Method"]}, {"conceptId": "C172580", "definition": "An AUC calculation method that utilizes the linear trapezoidal interpolation rule for the entire concentration curve.", "preferredTerm": "Linear Trapezoidal Method", "submissionValue": "LINEAR TRAPEZOIDAL METHOD"}, {"conceptId": "C172581", "definition": "An AUC calculation method that utilizes linear trapezoidal interpolation between two points any time the measured concentration increases and logarithmic trapezoidal interpolation between two points any time the concentration decreases over the entire concentration curve.", "preferredTerm": "Linear Up Log Down Method", "submissionValue": "LINEAR UP LOG DOWN METHOD"}]}