{"_links": {"parentPackage": {"href": "/mdr/ct/packages/sdtmct-2022-12-16", "title": "SDTM Controlled Terminology Package 52 Effective 2022-12-16", "type": "Terminology"}, "priorVersion": {"href": "/mdr/ct/packages/sdtmct-2022-09-30/codelists/C179953", "title": "CDISC Questionnaire Combat Exposure Scale CES0104 Standardized Character Response Terminology", "type": "Code List"}, "rootItem": {"href": "/mdr/root/ct/sdtmct/codelists/C179953", "title": "Version-agnostic anchor resource for codelist C179953", "type": "Root Value Domain"}, "self": {"href": "/mdr/ct/packages/sdtmct-2022-12-16/codelists/C179953", "title": "CDISC Questionnaire Combat Exposure Scale CES0104 Standardized Character Response Terminology", "type": "Code List"}}, "conceptId": "C179953", "definition": "Combat Exposure Scale standardized character result for CES0104 test and test code.", "extensible": "false", "name": "Combat Exposure Scale Questionnaire STRESC for CES0104 TN/TC", "preferredTerm": "CDISC Questionnaire Combat Exposure Scale CES0104 Standardized Character Response Terminology", "submissionValue": "CES0104STR", "synonyms": ["Combat Exposure Scale Questionnaire STRESC for CES0104 TN/TC"], "terms": [{"conceptId": "C180301", "definition": "Combat Exposure Scale standardized character result for CES0104-None.", "preferredTerm": "Combat Exposure Scale CES0104 Standardized Character Result 1", "submissionValue": "1", "synonyms": ["CES0104-1"]}, {"conceptId": "C180302", "definition": "Combat Exposure Scale standardized character result for CES0104-1-25%.", "preferredTerm": "Combat Exposure Scale CES0104 Standardized Character Result 2", "submissionValue": "2", "synonyms": ["CES0104-2"]}, {"conceptId": "C180303", "definition": "Combat Exposure Scale standardized character result for CES0104-26-50%.", "preferredTerm": "Combat Exposure Scale CES0104 Standardized Character Result 3", "submissionValue": "3", "synonyms": ["CES0104-3"]}, {"conceptId": "C180304", "definition": "Combat Exposure Scale standardized character result for CES0104-51-75%.", "preferredTerm": "Combat Exposure Scale CES0104 Standardized Character Result 4", "submissionValue": "4", "synonyms": ["CES0104-4"]}, {"conceptId": "C180305", "definition": "Combat Exposure Scale standardized character result for CES0104-76% or more.", "preferredTerm": "Combat Exposure Scale CES0104 Standardized Character Result 5", "submissionValue": "5", "synonyms": ["CES0104-5"]}]}