{"_links": {"parentPackage": {"href": "/mdr/ct/packages/sdtmct-2022-12-16", "title": "SDTM Controlled Terminology Package 52 Effective 2022-12-16", "type": "Terminology"}, "priorVersion": {"href": "/mdr/ct/packages/sdtmct-2022-09-30/codelists/C179940", "title": "CDISC Questionnaire FACT-BP Version 4 Test Code Terminology", "type": "Code List"}, "rootItem": {"href": "/mdr/root/ct/sdtmct/codelists/C179940", "title": "Version-agnostic anchor resource for codelist C179940", "type": "Root Value Domain"}, "self": {"href": "/mdr/ct/packages/sdtmct-2022-12-16/codelists/C179940", "title": "CDISC Questionnaire FACT-BP Version 4 Test Code Terminology", "type": "Code List"}}, "conceptId": "C179940", "definition": "Functional Assessment of Cancer Therapy-Bone Pain Version 4 test code.", "extensible": "false", "name": "Functional Assessment of Cancer Therapy-Bone Pain Version 4 Questionnaire Test Code", "preferredTerm": "CDISC Questionnaire FACT-BP Version 4 Test Code Terminology", "submissionValue": "FAC074TC", "synonyms": ["Functional Assessment of Cancer Therapy-Bone Pain Version 4 Questionnaire Test Code"], "terms": [{"conceptId": "C180023", "definition": "Functional Assessment of Cancer Therapy - BP: for patients with bone pain: In how many places in your body have you felt bone pain.", "preferredTerm": "FACT-BP Version 4 - How Many Places in Body Felt Pain", "submissionValue": "FAC07401", "synonyms": ["FAC074-How Many Places in Body Felt Pain"]}, {"conceptId": "C180024", "definition": "Functional Assessment of Cancer Therapy - BP: for patients with bone pain: I have certain parts of my body where I experience pain.", "preferredTerm": "FACT-BP Version 4 - Certain Parts of Body Have Pain", "submissionValue": "FAC07402", "synonyms": ["FAC074-Certain Parts of Body Have Pain"]}, {"conceptId": "C180025", "definition": "Functional Assessment of Cancer Therapy - BP: for patients with bone pain: I have bone pain.", "preferredTerm": "FACT-BP Version 4 - I Have Bone Pain", "submissionValue": "FAC07403", "synonyms": ["FAC074-I Have Bone Pain"]}, {"conceptId": "C180026", "definition": "Functional Assessment of Cancer Therapy - BP: for patients with bone pain: It hurts when I put weight or pressure on the place where I have bone pain.", "preferredTerm": "FACT-BP Version 4 - Hurts When Put Weight/Pressure on", "submissionValue": "FAC07404", "synonyms": ["FAC074-Hurts When Put Weight/Pressure on"]}, {"conceptId": "C180027", "definition": "Functional Assessment of Cancer Therapy - BP: for patients with bone pain: I have bone pain even when I sit stil.", "preferredTerm": "FACT-BP Version 4 - Bone Pain Even When I Sit Still", "submissionValue": "FAC07405", "synonyms": ["FAC074-Bone Pain Even When I Sit Still"]}, {"conceptId": "C180028", "definition": "Functional Assessment of Cancer Therapy - BP: for patients with bone pain: I need help doing my usual activities because of bone pain.", "preferredTerm": "FACT-BP Version 4 - Need Help Doing Usual Activities", "submissionValue": "FAC07406", "synonyms": ["FAC074-Need Help Doing Usual Activities"]}, {"conceptId": "C180029", "definition": "Functional Assessment of Cancer Therapy - BP: for patients with bone pain: I am forced to rest during the day due to bone pain.", "preferredTerm": "FACT-BP Version 4 - Rest During Day Due to Bone Pain", "submissionValue": "FAC07407", "synonyms": ["FAC074-Rest During Day Due to Bone Pain"]}, {"conceptId": "C180030", "definition": "Functional Assessment of Cancer Therapy - BP: for patients with bone pain: I have trouble walking because of bone pain.", "preferredTerm": "FACT-BP Version 4 - Trouble Walking Because Bone Pain", "submissionValue": "FAC07408", "synonyms": ["FAC074-Trouble Walking Because Bone Pain"]}, {"conceptId": "C180031", "definition": "Functional Assessment of Cancer Therapy - BP: for patients with bone pain: Bone pain interferes with my ability to care for myself (bathing, dressing, eating, etc.).", "preferredTerm": "FACT-BP Version 4 - Bone Pain Interferes Care Myself", "submissionValue": "FAC07409", "synonyms": ["FAC074-Bone Pain Interferes Care Myself"]}, {"conceptId": "C180032", "definition": "Functional Assessment of Cancer Therapy - BP: for patients with bone pain: Bone pain interferes with my social activities.", "preferredTerm": "FACT-BP Version 4 - Bone Pain Interferes w/Social", "submissionValue": "FAC07410", "synonyms": ["FAC074-Bone Pain Interferes w/Social"]}, {"conceptId": "C180033", "definition": "Functional Assessment of Cancer Therapy - BP: for patients with bone pain: Bone pain interferes with my sleep.", "preferredTerm": "FACT-BP Version 4 - Bone Pain Interferes w/My Sleep", "submissionValue": "FAC07411", "synonyms": ["FAC074-Bone Pain Interferes w/My Sleep"]}, {"conceptId": "C180034", "definition": "Functional Assessment of Cancer Therapy - BP: for patients with bone pain: I am frustrated by my bone pain.", "preferredTerm": "FACT-BP Version 4 - I am Frustrated by My Bone Pain", "submissionValue": "FAC07412", "synonyms": ["FAC074-I am Frustrated by My Bone Pain"]}, {"conceptId": "C180035", "definition": "Functional Assessment of Cancer Therapy - BP: for patients with bone pain: I feel depressed about my bone pain.", "preferredTerm": "FACT-BP Version 4 - I Feel Depressed about Bone Pain", "submissionValue": "FAC07413", "synonyms": ["FAC074-I Feel Depressed about Bone Pain"]}, {"conceptId": "C180036", "definition": "Functional Assessment of Cancer Therapy - BP: for patients with bone pain: I worry that my bone pain will get worse.", "preferredTerm": "FACT-BP Version 4 - I Worry Bone Pain Will Get Worse", "submissionValue": "FAC07414", "synonyms": ["FAC074-I Worry Bone Pain Will Get Worse"]}, {"conceptId": "C180037", "definition": "Functional Assessment of Cancer Therapy - BP: for patients with bone pain: My bone pain interferes with my family life.", "preferredTerm": "FACT-BP Version 4 - Bone Pain Interferes w/My Family", "submissionValue": "FAC07415", "synonyms": ["FAC074-Bone Pain Interferes w/My Family"]}, {"conceptId": "C180038", "definition": "Functional Assessment of Cancer Therapy - BP: for patients with bone pain: Bone pain interferes with my ability to do vigorous activity (exercise, heavy lifting, etc.).", "preferredTerm": "FACT-BP Version 4 - Pain Interferes Vigorous Activity", "submissionValue": "FAC07416", "synonyms": ["FAC074-Pain Interferes Vigorous Activity"]}, {"conceptId": "C180039", "definition": "Functional Assessment of Cancer Therapy - BP: for patients with bone pain: I have trouble concentrating due to my bone pain.", "preferredTerm": "FACT-BP Version 4 - Trouble Concentrating Due to Pain", "submissionValue": "FAC07417", "synonyms": ["FAC074-Trouble Concentrating Due to Pain"]}, {"conceptId": "C180040", "definition": "Functional Assessment of Cancer Therapy - BP: for patients with bone pain: I have difficulty coping with my bone pain.", "preferredTerm": "FACT-BP Version 4 - Difficulty Coping w/My Bone Pain", "submissionValue": "FAC07418", "synonyms": ["FAC074-Difficulty Coping w/My Bone Pain"]}, {"conceptId": "C180041", "definition": "Functional Assessment of Cancer Therapy - BP: for patients with bone pain: I have difficulty working due to my bone pain (including work at home)", "preferredTerm": "FACT-BP Version 4 - Difficulty Working Due to Pain", "submissionValue": "FAC07419", "synonyms": ["FAC074-Difficulty Working Due to Pain"]}, {"conceptId": "C180042", "definition": "Functional Assessment of Cancer Therapy - BP: for patients with bone pain: I am content with the quality of my life right now.", "preferredTerm": "FACT-BP Version 4 - Content With Quality of My Life", "submissionValue": "FAC07420", "synonyms": ["FAC074-Content With Quality of My Life"]}, {"conceptId": "C180043", "definition": "Functional Assessment of Cancer therapy - BP: BP subscale score.", "preferredTerm": "FACT-BP Version 4 - Total Score", "submissionValue": "FAC07421", "synonyms": ["FAC074-Total Score"]}]}