{"_links": {"parentPackage": {"href": "/mdr/ct/packages/sdtmct-2022-12-16", "title": "SDTM Controlled Terminology Package 52 Effective 2022-12-16", "type": "Terminology"}, "priorVersion": {"href": "/mdr/ct/packages/sdtmct-2022-09-30/codelists/C181169", "title": "CDISC SDTM Binding Agent for Immunogenicity Tests Terminology", "type": "Code List"}, "rootItem": {"href": "/mdr/root/ct/sdtmct/codelists/C181169", "title": "Version-agnostic anchor resource for codelist C181169", "type": "Root Value Domain"}, "self": {"href": "/mdr/ct/packages/sdtmct-2022-12-16/codelists/C181169", "title": "CDISC SDTM Binding Agent for Immunogenicity Tests Terminology", "type": "Code List"}}, "conceptId": "C181169", "definition": "A terminology codelist relevant to the description of the agent that is binding to the entity in the ISTEST variable.", "extensible": "true", "name": "Binding Agent for Immunogenicity Tests", "preferredTerm": "CDISC SDTM Binding Agent for Immunogenicity Tests Terminology", "submissionValue": "ISBDAGT", "synonyms": ["Binding Agent for Immunogenicity Tests"], "terms": [{"conceptId": "C189452", "definition": "Antigen(s) from the species Periplaneta americana (American cockroach) that are considered as insect allergen(s).", "preferredTerm": "Periplaneta americana Antigen", "submissionValue": "AMERICAN COCKROACH ANTIGEN", "synonyms": ["Periplaneta americana Antigen"]}, {"conceptId": "C189458", "definition": "Antigen(s) from the species Dermatophagoides farinae (American house dust mite) that are considered as insect allergen(s).", "preferredTerm": "Dermatophagoides farinae Antigen", "submissionValue": "AMERICAN HOUSE DUST MITE ANTIGEN", "synonyms": ["Dermatophagoides farinae Antigen"]}, {"conceptId": "C181357", "definition": "Antigen(s) from a mix of animals that are considered as animal allergen(s).", "preferredTerm": "Animal Mix Antigens", "submissionValue": "ANIMAL MIX ANTIGENS"}, {"conceptId": "C189454", "definition": "Antigen(s) in the Hymenoptera venom from a mix of bees that are considered as insect allergen(s).", "preferredTerm": "Multiple Bee Mix Hymenoptera venom Antigens", "submissionValue": "BEE MIX VENOM ANTIGENS"}, {"conceptId": "C189477", "definition": "Antigen(s) in the pollen of the species Cynodon dactylon (Bermuda grass) that are considered as plant allergen(s).", "preferredTerm": "Cynodon dactylon Pollen Antigen", "submissionValue": "BERMUDA GRASS POLLEN", "synonyms": ["Cynodon dactylon Pollen Antigen"]}, {"conceptId": "C187753", "definition": "The approximately 220-250 kDa cell surface, adhesin protein and the virulence factor for Bordetella pertussis.", "preferredTerm": "Bordetella pertussis Filamentous Hemagglutinin", "submissionValue": "BORDETELLA PERTUSSIS FILAMENTOUS HEMAGGLUTININ", "synonyms": ["Bordetella pertussis FHA"]}, {"conceptId": "C187754", "definition": "A mixture of fimbriae antigens from Bordetella pertussis.", "preferredTerm": "Bordetella pertussis Fimbriae Antigens", "submissionValue": "BORDETELLA PERTUSSIS FIMBRIAE ANTIGENS"}, {"conceptId": "C77699", "definition": "The approximately 69 kDa cell surface, autotransporter protein and the virulence factor for Bordetella pertussis.", "preferredTerm": "Bordetella pertussis Pertactin Antigen", "submissionValue": "BORDETELLA PERTUSSIS PERTACTIN", "synonyms": ["PRN"]}, {"conceptId": "C187755", "definition": "The approximately 105 kDa secreted exotoxin and the virulence factor for Bordetella pertussis.", "preferredTerm": "Bordetella pertussis Toxin", "submissionValue": "BORDETELLA PERTUSSIS TOXIN", "synonyms": ["PT"]}, {"conceptId": "C189455", "definition": "Antigen(s) in the pollen of the species Acer negundo (box elder tree) that are considered as plant allergen(s).", "preferredTerm": "Acer negundo Pollen Antigen", "submissionValue": "BOX ELDER POLLEN", "synonyms": ["Acer negundo Pollen Antigen", "Boxelder Pollen Antigen"]}, {"conceptId": "C189478", "definition": "Antigen(s) from the seed of the species Anacardium occidentale (cashew nut) that are considered as food allergen(s).", "preferredTerm": "Anacardium occidentale Nut Antigen", "submissionValue": "CASHEW NUT ANTIGEN", "synonyms": ["Anacardium occidentale Nut Antigen", "Cashew Nut Antigen"]}, {"conceptId": "C181359", "definition": "Antigen(s) in the dander (skin flakes) of the species Felis catus (domestic cat) that are considered as animal allergen(s).", "preferredTerm": "Cat Dander Antigen", "submissionValue": "CAT DANDER ANTIGEN", "synonyms": ["Domestic Cat Dander Antigen", "Felis catus Dander Antigen"]}, {"conceptId": "C189466", "definition": "Antigen(s) from a mix of workplace or household chemicals that are considered as allergen(s).", "preferredTerm": "Multiple Chemical Mix Antigens", "submissionValue": "CHEMICAL MIX ANTIGENS"}, {"conceptId": "C187757", "definition": "The approximately 150 kDa secreted protein toxin and the virulence factor for Clostridium tetani.", "preferredTerm": "Clostridium tetani Toxin", "submissionValue": "CLOSTRIDIUM TETANI TOXIN", "synonyms": ["TeNT", "Tetanospasmin", "Tetanus Toxin"]}, {"conceptId": "C187758", "definition": "The purified and detoxified form of the Clostridium tetani toxin. Toxicity of this toxin is suppressed or inactivated either by heat or with formaldehyde.", "preferredTerm": "Clostridium tetani Toxoid", "submissionValue": "CLOSTRIDIUM TETANI TOXOID"}, {"conceptId": "C189456", "definition": "Antigen(s) in the pollen of the species Ambrosia artemisiifolia (common ragweed) that are considered as plant allergen(s).", "preferredTerm": "Ambrosia elatior Pollen Antigen", "submissionValue": "COMMON RAGWEED POLLEN", "synonyms": ["Ambrosia artemisiifolia Pollen Antigen", "Ambrosia elatior Pollen Antigen", "Short Ragweed Pollen Antigen"]}, {"conceptId": "C189476", "definition": "Antigen(s) from the fruit (i.e. kernel/maize) of the species Zea mays (corn) that are considered as food allergen(s).", "preferredTerm": "Zea mays Antigen", "submissionValue": "CORN ANTIGEN", "synonyms": ["Maize Antigen", "Zea mays Antigen"]}, {"conceptId": "C189480", "definition": "Antigen(s) from the fruit of the species Corylus avellana (common hazel) that are considered as food allergen(s).", "preferredTerm": "Corylus Avellana Nut Antigen", "submissionValue": "CORYLUS AVELLANA NUT ANTIGEN", "synonyms": ["Common Hazel Nut Antigen", "Common Hazelnut Antigen", "European Hazel Nut Antigen"]}, {"conceptId": "C187759", "definition": "The purified and detoxified form of the Corynebacterium diphtheriae toxin. Toxicity of this toxin is suppressed or inactivated either by heat or with formaldehyde.", "preferredTerm": "Corynebacterium diphtheriae Toxoid", "submissionValue": "CORYNEBACTERIUM DIPHTHERIAE TOXOID"}, {"conceptId": "C181361", "definition": "Antigen(s) in the dander (skin flakes) of the species Bos taurus (cow) that are considered as animal allergen(s).", "preferredTerm": "Cow Dander Antigen", "submissionValue": "COW DANDER ANTIGEN", "synonyms": ["Bos taurus Dander Antigen", "Cattle Dander Antigen"]}, {"conceptId": "C189457", "definition": "Antigen(s) from the milk produced by a cow that are considered as food allergen(s).", "preferredTerm": "Cow Milk Antigen", "submissionValue": "COW MILK ANTIGEN"}, {"conceptId": "C189460", "definition": "Antigen(s) in the mix of foods made from mammalian milk that are considered as food allergen(s).", "preferredTerm": "Multiple Dairy Mix Antigens", "submissionValue": "DAIRY MIX ANTIGENS"}, {"conceptId": "C187763", "definition": "The B subtype of nuclease produced by group A beta-hemolytic streptococci.", "preferredTerm": "Group A Streptococcus Deoxyribonuclease-B", "submissionValue": "DEOXYRIBONUCLEASE-B", "synonyms": ["DNase B", "Group A Streptococcus Deoxyribonuclease-B"]}, {"conceptId": "C181358", "definition": "Antigen(s) in the dander (skin flakes) of the species Canis lupus familiaris (dog) that are considered as animal allergen(s).", "preferredTerm": "Dog Dander Antigen", "submissionValue": "DOG DANDER ANTIGEN", "synonyms": ["Canis familiaris Dander Antigen", "Canis lupus familiaris Dander Antigen"]}, {"conceptId": "C189461", "definition": "Antigen(s) from the clear and liquid substance around the yolk of an egg that are considered as food allergen(s).", "preferredTerm": "Egg White Antigen", "submissionValue": "EGG WHITE ANTIGEN"}, {"conceptId": "C189479", "definition": "Antigen(s) in the pollen of the species Plantago lanceolata (English plantain) that are considered as plant allergen(s).", "preferredTerm": "Plantago lanceolata Pollen Antigen", "submissionValue": "ENGLISH PLANTAIN POLLEN", "synonyms": ["Plantago lanceolata Pollen Antigen"]}, {"conceptId": "C187761", "definition": "The approximately 110 kDa structural protein that forms the nucleocapsid of the Epstein-Barr virus.", "preferredTerm": "Epstein-Barr Virus Capsid Antigen", "submissionValue": "EPSTEIN-BARR VIRUS CAPSID ANTIGEN", "synonyms": ["EBV-VCA"]}, {"conceptId": "C187762", "definition": "The approximately 46-55 kDa lytic protein from the Epstein-Barr virus and is the diffuse component of the Epstein-Barr virus-induced early antigen (EA) complex.", "preferredTerm": "Epstein-Barr Virus Early Antigen Diffuse Component", "submissionValue": "EPSTEIN-BARR VIRUS EARLY D ANTIGEN", "synonyms": ["EBV EA-D", "Epstein-Barr Virus Early Antigen Diffuse Component", "Epstein-Barr Virus Early Antigen-Diffuse"]}, {"conceptId": "C128296", "definition": "The approximately 66 kDa DNA-binding protein with a designation nuclear antigen 1, from the 6 nuclear antigens produced by the Epstein-Barr virus.", "preferredTerm": "Epstein-Barr Nuclear Antigen 1", "submissionValue": "EPSTEIN-BARR VIRUS NUCLEAR ANTIGEN 1", "synonyms": ["EBNA1", "EBV Nuclear Antigen 1"]}, {"conceptId": "C187760", "definition": "One or more proteins from the 6 nuclear antigens (EBNA 1, 2, 3, 4, 5 and/or 6) produced by the Epstein-Barr virus.", "preferredTerm": "Epstein-Barr Nuclear Antigen", "submissionValue": "EPSTEIN-BARR VIRUS NUCLEAR ANTIGEN", "synonyms": ["EBNA"]}, {"conceptId": "C189459", "definition": "Antigen(s) from the species Dermatophagoides pteronyssinus (European house dust mite) that are considered as insect allergen(s).", "preferredTerm": "Dermatophagoides pteronyssinus Antigen", "submissionValue": "EUROPEAN HOUSE DUST MITE ANTIGEN", "synonyms": ["Dermatophagoides pteronyssinus Antigen"]}, {"conceptId": "C189462", "definition": "Antigen(s) from the species Blattella germanica (German cockroach) that are considered as insect allergen(s).", "preferredTerm": "Blattella germanica Antigen", "submissionValue": "GERMAN COCKROACH ANTIGEN", "synonyms": ["Blattella germanica Antigen"]}, {"conceptId": "C189463", "definition": "An antigen and alcohol-soluble fraction of gluten from wheat and other grains that is considered as a food allergen.", "preferredTerm": "Gliadin Antigen", "submissionValue": "GLIADIN ANTIGEN"}, {"conceptId": "C189465", "definition": "Antigen(s) in the pollens of a mix of grasses that are considered as plant allergen(s).", "preferredTerm": "Multiple Grass Mix Pollen Antigens", "submissionValue": "GRASS MIX POLLENS"}, {"conceptId": "C187764", "definition": "The approximately 21.5 kDa structural protein that forms the nucleocapsid of the Hepatitis B virus.", "preferredTerm": "Hepatitis B Virus Capsid Antigen", "submissionValue": "HEPATITIS B VIRUS CORE ANTIGEN", "synonyms": ["HBcAg", "Hepatitis B Virus Capsid Antigen"]}, {"conceptId": "C187765", "definition": "The approximately 16-18 kDa nonstructural tolerogen that forms in-between the nucleocapsid and the lipid envelope of, and is secreted by the Hepatitis B virus.", "preferredTerm": "Hepatitis B Virus Early Antigen", "submissionValue": "HEPATITIS B VIRUS E ANTIGEN", "synonyms": ["HBeAg", "Hepatitis B Virus Early Antigen"]}, {"conceptId": "C62786", "definition": "One or more of the three structural surface proteins, small, HBsAg S (26 kDa); middle, HBsAg M (33 kDa); and large, HBsAg L (41 kDa), that form the hepatitis B viral lipid envelope.", "preferredTerm": "Hepatitis B Virus HBsAg Surface Protein Antigen", "submissionValue": "HEPATITIS B VIRUS SURFACE ANTIGEN", "synonyms": ["HBsAg"]}, {"conceptId": "C187772", "definition": "A mixture of different species (or below the species level classifications) of the herpes simplex viruses.", "preferredTerm": "Mixed Herpes Simplex Viruses", "submissionValue": "HERPES SIMPLEX VIRUSES"}, {"conceptId": "C187773", "definition": "A mixture of different species (or below the species level classifications) of the human immunodeficiency viruses.", "preferredTerm": "Mixed Human Immunodeficiency Viruses", "submissionValue": "HIV VIRUSES"}, {"conceptId": "C187766", "definition": "The approximately 160 kDa envelope glycoprotein from the human immunodeficiency virus 1. This precursor protein is further cleaved into the gp120 and gp41 proteins.", "preferredTerm": "HIV-1 gp160", "submissionValue": "HIV-1 GP160"}, {"conceptId": "C187767", "definition": "The approximately 41 kDa transmembrane, envelope glycoprotein from the human immunodeficiency virus 1. This transmembrane protein is cleaved from the precursor GP160 protein.", "preferredTerm": "HIV-1 gp41", "submissionValue": "HIV-1 GP41"}, {"conceptId": "C187768", "definition": "The approximately 24 kDa structural protein that forms the nucleocapsid of the human immunodeficiency virus 1.", "preferredTerm": "HIV-1 p24", "submissionValue": "HIV-1 P24", "synonyms": ["HIV-1 P24 Capsid Protein"]}, {"conceptId": "C187769", "definition": "The approximately 31 kDa integrase from the human immunodeficiency virus 1.", "preferredTerm": "HIV-1 p31", "submissionValue": "HIV-1 P31", "synonyms": ["HIV-1 IN"]}, {"conceptId": "C187770", "definition": "The approximately 140 kDa envelope glycoprotein from the human immunodeficiency virus 2.", "preferredTerm": "HIV-2 gp140", "submissionValue": "HIV-2 GP140"}, {"conceptId": "C187771", "definition": "The approximately 36 kDa transmembrane, envelope glycoprotein from the human immunodeficiency virus 2.", "preferredTerm": "HIV-2 gp36", "submissionValue": "HIV-2 GP36"}, {"conceptId": "C181360", "definition": "Antigen(s) in the dander (skin flakes) of the species Equus caballus (domestic horse) that are considered as animal allergen(s).", "preferredTerm": "Horse Dander Antigen", "submissionValue": "HORSE DANDER ANTIGEN", "synonyms": ["Domestic Horse Dander Antigen", "Equus caballus Dander Antigen"]}, {"conceptId": "C187774", "definition": "A mixture of different species (or below the species level classifications) of the human T-cell lymphotropic viruses.", "preferredTerm": "Mixed Human T-cell Lymphotropic Viruses", "submissionValue": "HTLV VIRUSES"}, {"conceptId": "C189481", "definition": "Antigen(s) in the pollen of the species Sorghum halepense (Johnson grass) that are considered as plant allergen(s).", "preferredTerm": "Sorghum halepense Pollen Antigen", "submissionValue": "JOHNSON GRASS POLLEN", "synonyms": ["Sorghum halepense Pollen", "Sorghum halepense Pollen Antigen"]}, {"conceptId": "C189467", "definition": "An antigen found in the hemolymph of the species Megathura crenulata (giant keyhole limpet) that is also considered as a food allergen.", "preferredTerm": "Megathura crenulata Hemocyanin Antigen", "submissionValue": "KEYHOLE LIMPET HEMOCYANIN", "synonyms": ["KLH", "Megathura crenulata Hemocyanin"]}, {"conceptId": "C189482", "definition": "Antigen(s) from a mix of types of sources that are considered as allergen(s).", "preferredTerm": "Multiple Mixed Antigens", "submissionValue": "MIXED ANTIGENS"}, {"conceptId": "C189468", "definition": "Antigen(s) from a mix of molds that are considered as allergen(s).", "preferredTerm": "Multiple Mold Mix Antigens", "submissionValue": "MOLD MIX ANTIGENS"}, {"conceptId": "C181353", "definition": "A group of autoimmune substances found in the nucleus of a cell that are the target of autoantibodies.", "preferredTerm": "Nuclear Autoantigen", "submissionValue": "NUCLEAR AUTOANTIGENS"}, {"conceptId": "C189469", "definition": "Antigen(s) from a mix of edible nuts that are considered as food allergen(s).", "preferredTerm": "Multiple Nut Mix Antigens", "submissionValue": "NUT MIX ANTIGENS"}, {"conceptId": "C189483", "definition": "Antigen(s) in the pollen of the species Olea europaea (olive tree) that are considered as plant allergen(s).", "preferredTerm": "Olea europaea Pollen Antigen", "submissionValue": "OLIVE TREE POLLEN", "synonyms": ["Common Olive Pollen Antigen", "Olea europaea Pollen Antigen"]}, {"conceptId": "C189484", "definition": "Antigen(s) in the pollen of the species Dactylis glomerata (orchard grass) that are considered as plant allergen(s).", "preferredTerm": "Dactylis glomerata Pollen Antigen", "submissionValue": "ORCHARD GRASS POLLEN", "synonyms": ["Cocksfoot Grass Pollen Antigen", "Dactylis glomerata Pollen Antigen"]}, {"conceptId": "C189453", "definition": "Antigen(s) from the seed of the species Arachis hypogaea (peanut) that are considered as food allergen(s).", "preferredTerm": "Arachis hypogaea Antigen", "submissionValue": "PEANUT ANTIGEN", "synonyms": ["Arachis hypogaea Antigen"]}, {"conceptId": "C189485", "definition": "Antigen(s) in the pollen of the species Kali turgidum (Russian thistle) that are considered as plant allergen(s).", "preferredTerm": "Kali turgidum Pollen Antigen", "submissionValue": "RUSSIAN THISTLE POLLEN", "synonyms": ["Common Saltwort Pollen Antigen", "Kali turgidum Pollen Antigen", "Salsola kali Pollen Antigen"]}, {"conceptId": "C181991", "definition": "The approximately 45.6 kDa structural protein that forms the nucleocapsid of the Severe Acute Respiratory Syndrome Coronavirus 2 virus (SARS-CoV-2).", "preferredTerm": "SARS-CoV-2 Nucleoprotein", "submissionValue": "SARS-COV-2 NUCLEOCAPSID PROTEIN", "synonyms": ["SARS-CoV-2 Nucleocapsid N Protein"]}, {"conceptId": "C178209", "definition": "The approximately 180-200 kDa transmembrane, receptor binding protein from the Severe Acute Respiratory Syndrome Coronavirus 2 virus (SARS-CoV-2).", "preferredTerm": "SARS-CoV-2 Spike Glycoprotein", "submissionValue": "SARS-COV-2 SPIKE PROTEIN", "synonyms": ["SARS-CoV-2 S Protein"]}, {"conceptId": "C189470", "definition": "Antigen(s) from any member(s) of the aquatic invertebrate animal having a shell and belonging to the phylum Mollusca, the class Crustacea (phylum Arthropoda), or the phylum Echinodermata that are considered as food allergen(s).", "preferredTerm": "Multiple Shellfish Mix Antigens", "submissionValue": "SHELLFISH MIX ANTIGENS"}, {"conceptId": "C189486", "definition": "Antigen(s) in the pollen of the species Betula pendula (silver birch tree) that are considered as plant allergen(s).", "preferredTerm": "Betula pendula Pollen Antigen", "submissionValue": "SILVER BIRCH POLLEN", "synonyms": ["Betula pendula Pollen Antigen", "Betula verrucosa Pollen Antigen", "European White Birch Pollen Antigen"]}, {"conceptId": "C181355", "definition": "An autoantigen encoded by the Ro52 gene (also called the TRIM21 gene) and has a molecular weight of 52 kDa. It is associated with the autoimmune disease Sjogrens Syndrome.", "preferredTerm": "Sjogrens SS-A52 Antigen", "submissionValue": "SJOGRENS SS-A52 ANTIGEN", "synonyms": ["Ro52", "Sjogrens Ro 52kDa Antigen", "SSA-52"]}, {"conceptId": "C181354", "definition": "An autoantigen encoded by the Ro60 gene and has a molecular weight of 60 kDa. It is associated with the autoimmune disease Sjogrens Syndrome.", "preferredTerm": "Sjogrens SS-A60 Antigen", "submissionValue": "SJOGRENS SS-A60 ANTIGEN", "synonyms": ["Ro60", "Sjogrens Ro 60kDa Antigen", "SSA-60"]}, {"conceptId": "C181356", "definition": "An autoantigen encoded by the SSB gene. It is associated with the autoimmune disease Sjogrens Syndrome.", "preferredTerm": "Sjogrens SS-B Antigen", "submissionValue": "SJOGRENS SS-B ANTIGEN", "synonyms": ["Sjogrens La Antigen", "SSB"]}, {"conceptId": "C189464", "definition": "Antigen(s) from the seed of the species Glycine max (soybean) that are considered as food allergen(s).", "preferredTerm": "Glycine max Antigen", "submissionValue": "SOYBEAN ANTIGEN", "synonyms": ["Glycine max Antigen"]}, {"conceptId": "C187775", "definition": "The approximately 60 kDa protein that is an oxygen-labile exotoxin produced by beta-hemolytic streptococci.", "preferredTerm": "Streptococcal Toxin Streptolysin O", "submissionValue": "STREPTOLYSIN O", "synonyms": ["SLO", "Streptococcal Toxin Streptolysin O"]}, {"conceptId": "C189487", "definition": "Antigen(s) in the pollen of the species Phleum pratense (Timothy grass) that are considered as plant allergen(s).", "preferredTerm": "Phleum pratense Pollen Antigen", "submissionValue": "TIMOTHY GRASS POLLEN", "synonyms": ["Phleum pratense Pollen Antigen"]}, {"conceptId": "C189471", "definition": "Antigen(s) in the pollens of a mix of trees that are considered as plant allergen(s).", "preferredTerm": "Multiple Tree Mix Pollen Antigens", "submissionValue": "TREE MIX POLLENS"}, {"conceptId": "C189472", "definition": "Antigen(s) from the species Triticum aestivum (common wheat) that are considered as food allergen(s).", "preferredTerm": "Triticum Aestivum Antigen", "submissionValue": "TRITICUM AESTIVUM ANTIGEN", "synonyms": ["Bread Wheat Antigen", "Common Wheat Antigen"]}, {"conceptId": "C189488", "definition": "Antigen(s) from the wheat species within the genus Triticum that are considered as food allergen(s).", "preferredTerm": "Triticum Species Antigen", "submissionValue": "TRITICUM SPECIES ANTIGEN"}, {"conceptId": "C187756", "definition": "The approximately 55 kDa, receptor binding B subunit of the Cholera toxin and the virulence factor for Vibrio cholerae.", "preferredTerm": "Cholera Toxin B Subunit", "submissionValue": "VIBRIO CHOLERA TOXIN B SUBUNIT", "synonyms": ["CTB"]}, {"conceptId": "C189491", "definition": "Antigen(s) from the fruit(s) of the Juglans species (walnut) that are considered as food allergen(s).", "preferredTerm": "Walnut Antigen", "submissionValue": "WALNUT ANTIGEN"}, {"conceptId": "C189473", "definition": "Antigen(s) in the pollens of a mix of weeds that are considered as plant allergen(s).", "preferredTerm": "Multiple Weed Mix Pollen Antigens", "submissionValue": "WEED MIX POLLENS"}, {"conceptId": "C189489", "definition": "Antigen(s) in the pollen of the species Ambrosia psilostachya (Western ragweed) that are considered as plant allergen(s).", "preferredTerm": "Ambrosia psilostachya Pollen Antigen", "submissionValue": "WESTERN RAGWEED POLLEN", "synonyms": ["Ambrosia psilostachya Pollen Antigen"]}, {"conceptId": "C189474", "definition": "Antigen(s) in the pollen of the species Ulmus americana (white elm tree) that are considered as plant allergen(s).", "preferredTerm": "Ulmus americana Pollen Antigen", "submissionValue": "WHITE ELM POLLEN", "synonyms": ["American elm Pollen Antigen", "Ulmus americana Pollen Antigen"]}, {"conceptId": "C189475", "definition": "Antigen(s) in the pollen of the species Quercus alba (white oak tree) that are considered as plant allergen(s).", "preferredTerm": "Quercus alba Pollen Antigen", "submissionValue": "WHITE OAK POLLEN", "synonyms": ["Quercus alba Pollen Antigen"]}, {"conceptId": "C189490", "definition": "Antigen(s) in the pollen of the species Leymus triticoides (wild rye grass) that are considered as plant allergen(s).", "preferredTerm": "Leymus triticoides Pollen Antigen", "submissionValue": "WILD RYE GRASS POLLEN", "synonyms": ["Elymus triticoides Pollen Antigen", "Leymus triticoides Pollen Antigen"]}]}