{"_links": {"parentPackage": {"href": "/mdr/ct/packages/sdtmct-2022-12-16", "title": "SDTM Controlled Terminology Package 52 Effective 2022-12-16", "type": "Terminology"}, "priorVersion": {"href": "/mdr/ct/packages/sdtmct-2022-09-30/codelists/C181178", "title": "CDISC SDTM Genomic Findings Test Code Terminology", "type": "Code List"}, "rootItem": {"href": "/mdr/root/ct/sdtmct/codelists/C181178", "title": "Version-agnostic anchor resource for codelist C181178", "type": "Root Value Domain"}, "self": {"href": "/mdr/ct/packages/sdtmct-2022-12-16/codelists/C181178", "title": "CDISC SDTM Genomic Findings Test Code Terminology", "type": "Code List"}}, "conceptId": "C181178", "definition": "Terminology relevant to the test codes that describe genomic findings.", "extensible": "true", "name": "Genomic Findings Test Code", "preferredTerm": "CDISC SDTM Genomic Findings Test Code Terminology", "submissionValue": "GFTESTCD", "synonyms": ["Genomic Findings Test Code"], "terms": [{"conceptId": "C181330", "definition": "An assessment of the variability in the number of replicas of a gene within a genome.", "preferredTerm": "Copy Number Variation Assessment", "submissionValue": "CPNUMVAR", "synonyms": ["Copy Number Variation", "Gene Copy Number Variation"]}, {"conceptId": "C181333", "definition": "An assessment of the unique pattern of gene expression of one to many genes associated with a normal or abnormal biological process.", "preferredTerm": "Gene Signature Assessment", "submissionValue": "GENESIG", "synonyms": ["Gene Expression Signature", "Gene Signature"]}, {"conceptId": "C181332", "definition": "An assessment of the variability in length of microsatellite sequences.", "preferredTerm": "Microsatellite Instability Length Assessment", "submissionValue": "MICRISTB", "synonyms": ["Microsatellite Instability"]}, {"conceptId": "C189439", "definition": "Any product of a process affecting a nucleic acid sequence that results in the gain, loss, inversion, or translocation of nucleic acid.", "preferredTerm": "Sequence Rearrangement", "submissionValue": "SEQREAR", "synonyms": ["Sequence Rearrangement"]}, {"conceptId": "C181334", "definition": "An assessment of the variability in a short sequence of nucleotides (generally defined as 50 base pairs or less), when compared to a reference sequence.", "preferredTerm": "Short Variation Assessment", "submissionValue": "SHRTVAR", "synonyms": ["Short Variation"]}, {"conceptId": "C181331", "definition": "An assessment of the variability in a nucleotide found within a specified position of the genome, when compared to a reference nucleotide.", "preferredTerm": "Single Nucleotide Variation Assessment", "submissionValue": "SNV", "synonyms": ["Single Nucleotide Variation"]}, {"conceptId": "C181335", "definition": "A quantitative or qualitative assessment of the number of genomic alterations found in genetic material from tumor cells, when compared to a reference sequence.", "preferredTerm": "Tumor Mutation Burden Assessment", "submissionValue": "TMB", "synonyms": ["Tumor Mutation Burden", "Tumor Mutational Burden"]}, {"conceptId": "C17208", "definition": "An assessment of transcribed RNA molecules in a biological specimen.", "preferredTerm": "Transcription", "submissionValue": "TRNSCPTN", "synonyms": ["Transcription"]}, {"conceptId": "C189441", "definition": "An assessment of the unique pattern of sequence variation of one to many loci associated with a normal or abnormal biological process.", "preferredTerm": "Variant Profile Assessment", "submissionValue": "VARPROF", "synonyms": ["Variant Profile"]}, {"conceptId": "C189440", "definition": "An assessment of the variations in the number of tandem repeat nucleotide sequences, which are end-to-end adjacent copies of a short (2 to 60 nucleotides) DNA sequence.", "preferredTerm": "Variable Number Tandem Repeats Assessment", "submissionValue": "VNTR", "synonyms": ["Tandem Repeat Variation", "Variable Nucleotide Tandem Repeats", "Variable Number Tandem Repeats"]}]}