{"_links": {"parentPackage": {"href": "/mdr/ct/packages/sdtmct-2022-12-16", "title": "SDTM Controlled Terminology Package 52 Effective 2022-12-16", "type": "Terminology"}, "priorVersion": {"href": "/mdr/ct/packages/sdtmct-2022-09-30/codelists/C182494", "title": "CDISC Clinical Classification Acute Physiology and Chronic Health Evaluation II APCH109 Original Response Terminology", "type": "Code List"}, "rootItem": {"href": "/mdr/root/ct/sdtmct/codelists/C182494", "title": "Version-agnostic anchor resource for codelist C182494", "type": "Root Value Domain"}, "self": {"href": "/mdr/ct/packages/sdtmct-2022-12-16/codelists/C182494", "title": "CDISC Clinical Classification Acute Physiology and Chronic Health Evaluation II APCH109 Original Response Terminology", "type": "Code List"}}, "conceptId": "C182494", "definition": "Acute Physiology and Chronic Health Evaluation II original result for APCH109 test and test code.", "extensible": "false", "name": "Acute Physiology and Chronic Health Evaluation II Clinical Classification ORRES for APCH109 TN/TC", "preferredTerm": "CDISC Clinical Classification Acute Physiology and Chronic Health Evaluation II APCH109 Original Response Terminology", "submissionValue": "APCH109OR", "synonyms": ["Acute Physiology and Chronic Health Evaluation II Clinical Classification ORRES for APCH109 TN/TC"], "terms": [{"conceptId": "C182999", "definition": "Acute Physiology and Chronic Health Evaluation II original result for APCH109-0.6-1.4.", "preferredTerm": "Acute Physiology and Chronic Health Evaluation II APCH109 Original Result - 0.6-1.4", "submissionValue": "0.6-1.4", "synonyms": ["APCH109-0.6-1.4"]}, {"conceptId": "C182995", "definition": "Acute Physiology and Chronic Health Evaluation II original result for APCH109-1.5-1.9 and acute renal failure.", "preferredTerm": "Acute Physiology and Chronic Health Evaluation II APCH109 Original Result - 1.5-1.9 and acute renal failure", "submissionValue": "1.5-1.9 and acute renal failure", "synonyms": ["APCH109-1.5-1.9 and acute renal failure"]}, {"conceptId": "C182998", "definition": "Acute Physiology and Chronic Health Evaluation II original result for APCH109-1.5-1.9.", "preferredTerm": "Acute Physiology and Chronic Health Evaluation II APCH109 Original Result - 1.5-1.9", "submissionValue": "1.5-1.9", "synonyms": ["APCH109-1.5-1.9"]}, {"conceptId": "C182994", "definition": "Acute Physiology and Chronic Health Evaluation II original result for APCH109-2-3.4 and acute renal failure.", "preferredTerm": "Acute Physiology and Chronic Health Evaluation II APCH109 Original Result - 2-3.4 and acute renal failure", "submissionValue": "2-3.4 and acute renal failure", "synonyms": ["APCH109-2-3.4 and acute renal failure"]}, {"conceptId": "C182997", "definition": "Acute Physiology and Chronic Health Evaluation II original result for APCH109-2-3.4.", "preferredTerm": "Acute Physiology and Chronic Health Evaluation II APCH109 Original Result - 2-3.4", "submissionValue": "2-3.4", "synonyms": ["APCH109-2-3.4"]}, {"conceptId": "C183000", "definition": "Acute Physiology and Chronic Health Evaluation II original result for APCH109-Less than 0.6.", "preferredTerm": "Acute Physiology and Chronic Health Evaluation II APCH109 Original Result - <0.6", "submissionValue": "<0.6", "synonyms": ["APCH109-<0.6"]}, {"conceptId": "C182993", "definition": "Acute Physiology and Chronic Health Evaluation II original result for APCH109-Greater than or equal to 3.5 and acute renal failure.", "preferredTerm": "Acute Physiology and Chronic Health Evaluation II APCH109 Original Result - >=3.5 and acute renal failure", "submissionValue": ">=3.5 and acute renal failure", "synonyms": ["APCH109->=3.5 and acute renal failure"]}, {"conceptId": "C182996", "definition": "Acute Physiology and Chronic Health Evaluation II original result for APCH109-Greater than or equal to 3.5.", "preferredTerm": "Acute Physiology and Chronic Health Evaluation II APCH109 Original Result - >=3.5", "submissionValue": ">=3.5", "synonyms": ["APCH109->=3.5"]}]}