{"_links": {"parentPackage": {"href": "/mdr/ct/packages/sdtmct-2022-12-16", "title": "SDTM Controlled Terminology Package 52 Effective 2022-12-16", "type": "Terminology"}, "priorVersion": {"href": "/mdr/ct/packages/sdtmct-2022-09-30/codelists/C182499", "title": "CDISC Questionnaire International Prostate Symptom Score IPS0101 Through IPS0106 Standardized Character Response Terminology", "type": "Code List"}, "rootItem": {"href": "/mdr/root/ct/sdtmct/codelists/C182499", "title": "Version-agnostic anchor resource for codelist C182499", "type": "Root Value Domain"}, "self": {"href": "/mdr/ct/packages/sdtmct-2022-12-16/codelists/C182499", "title": "CDISC Questionnaire International Prostate Symptom Score IPS0101 Through IPS0106 Standardized Character Response Terminology", "type": "Code List"}}, "conceptId": "C182499", "definition": "International Prostate Symptom Score standardized character result for IPS0101 Through IPS0106 test and test code.", "extensible": "false", "name": "International Prostate Symptom Score Questionnaire STRESC for IPS0101 Through IPS0106 TN/TC", "preferredTerm": "CDISC Questionnaire International Prostate Symptom Score IPS0101 Through IPS0106 Standardized Character Response Terminology", "submissionValue": "IPS0101T06STR", "synonyms": ["International Prostate Symptom Score Questionnaire STRESC for IPS0101 Through IPS0106 TN/TC"], "terms": [{"conceptId": "C182640", "definition": "International Prostate Symptom Score standardized character result for IPS0101 through IPS0106-Not at all.", "preferredTerm": "International Prostate Symptom Score IPS0101 Through IPS0106 Standardized Character Result 0", "submissionValue": "0", "synonyms": ["IPS0101 through IPS0106-0"]}, {"conceptId": "C182641", "definition": "International Prostate Symptom Score standardized character result for IPS0101 through IPS0106-Less than 1 time in 5.", "preferredTerm": "International Prostate Symptom Score IPS0101 Through IPS0106 Standardized Character Result 1", "submissionValue": "1", "synonyms": ["IPS0101 through IPS0106-1"]}, {"conceptId": "C182642", "definition": "International Prostate Symptom Score standardized character result for IPS0101 through IPS0106-Less than half the time.", "preferredTerm": "International Prostate Symptom Score IPS0101 Through IPS0106 Standardized Character Result 2", "submissionValue": "2", "synonyms": ["IPS0101 through IPS0106-2"]}, {"conceptId": "C182643", "definition": "International Prostate Symptom Score standardized character result for IPS0101 through IPS0106-About half the time.", "preferredTerm": "International Prostate Symptom Score IPS0101 Through IPS0106 Standardized Character Result 3", "submissionValue": "3", "synonyms": ["IPS0101 through IPS0106-3"]}, {"conceptId": "C182644", "definition": "International Prostate Symptom Score standardized character result for IPS0101 through IPS0106-More than half the time.", "preferredTerm": "International Prostate Symptom Score IPS0101 Through IPS0106 Standardized Character Result 4", "submissionValue": "4", "synonyms": ["IPS0101 through IPS0106-4"]}, {"conceptId": "C182645", "definition": "International Prostate Symptom Score standardized character result for IPS0101 through IPS0106-Almost always.", "preferredTerm": "International Prostate Symptom Score IPS0101 Through IPS0106 Standardized Character Result 5", "submissionValue": "5", "synonyms": ["IPS0101 through IPS0106-5"]}]}