{"_links": {"parentPackage": {"href": "/mdr/ct/packages/sdtmct-2022-12-16", "title": "SDTM Controlled Terminology Package 52 Effective 2022-12-16", "type": "Terminology"}, "priorVersion": {"href": "/mdr/ct/packages/sdtmct-2022-09-30/codelists/C182461", "title": "CDISC Questionnaire International Prostate Symptom Score IPS0101 Through IPS0106 Original Response Terminology", "type": "Code List"}, "rootItem": {"href": "/mdr/root/ct/sdtmct/codelists/C182461", "title": "Version-agnostic anchor resource for codelist C182461", "type": "Root Value Domain"}, "self": {"href": "/mdr/ct/packages/sdtmct-2022-12-16/codelists/C182461", "title": "CDISC Questionnaire International Prostate Symptom Score IPS0101 Through IPS0106 Original Response Terminology", "type": "Code List"}}, "conceptId": "C182461", "definition": "International Prostate Symptom Score original result for IPS0101 through IPS0106 test and test code.", "extensible": "false", "name": "International Prostate Symptom Score Questionnaire ORRES for IPS0101 Through IPS0106 TN/TC", "preferredTerm": "CDISC Questionnaire International Prostate Symptom Score IPS0101 Through IPS0106 Original Response Terminology", "submissionValue": "IPS0101T06OR", "synonyms": ["International Prostate Symptom Score Questionnaire ORRES for IPS0101 Through IPS0106 TN/TC"], "terms": [{"conceptId": "C182637", "definition": "International Prostate Symptom Score original result for IPS0101 through IPS0106-About half the time.", "preferredTerm": "International Prostate Symptom Score IPS0101 Through IPS0106 Original Result - About Half the Time", "submissionValue": "About Half the Time", "synonyms": ["IPS0101 through IPS0106-About Half the Time"]}, {"conceptId": "C182639", "definition": "International Prostate Symptom Score original result for IPS0101 through IPS0106-Almost always.", "preferredTerm": "International Prostate Symptom Score IPS0101 Through IPS0106 Original Result - Almost Always", "submissionValue": "Almost Always", "synonyms": ["IPS0101 through IPS0106-Almost Always"]}, {"conceptId": "C182635", "definition": "International Prostate Symptom Score original result for IPS0101 through IPS0106-Less than 1 time in 5.", "preferredTerm": "International Prostate Symptom Score IPS0101 Through IPS0106 Original Result - Less Than 1 Time in 5", "submissionValue": "Less Than 1 Time in 5", "synonyms": ["IPS0101 through IPS0106-Less Than 1 Time in 5"]}, {"conceptId": "C182636", "definition": "International Prostate Symptom Score original result for IPS0101 through IPS0106-Less than half the time.", "preferredTerm": "International Prostate Symptom Score IPS0101 Through IPS0106 Original Result - Less Than Half the Time", "submissionValue": "Less Than Half the Time", "synonyms": ["IPS0101 through IPS0106-Less Than Half the Time"]}, {"conceptId": "C182638", "definition": "International Prostate Symptom Score original result for IPS0101 through IPS0106-More than half the time.", "preferredTerm": "International Prostate Symptom Score IPS0101 Through IPS0106 Original Result - More Than Half the Time", "submissionValue": "More Than Half the Time", "synonyms": ["IPS0101 through IPS0106-More Than Half the Time"]}, {"conceptId": "C182634", "definition": "International Prostate Symptom Score original result for IPS0101 through IPS0106-Not at all.", "preferredTerm": "International Prostate Symptom Score IPS0101 Through IPS0106 Original Result - Not at All", "submissionValue": "Not at All", "synonyms": ["IPS0101 through IPS0106-Not at All"]}]}