{"_links": {"parentPackage": {"href": "/mdr/ct/packages/sdtmct-2022-12-16", "title": "SDTM Controlled Terminology Package 52 Effective 2022-12-16", "type": "Terminology"}, "priorVersion": {"href": "/mdr/ct/packages/sdtmct-2022-09-30/codelists/C182521", "title": "CDISC Clinical Classification Kurtzke Functional System Scores KFSS108 Standardized Character Response Terminology", "type": "Code List"}, "rootItem": {"href": "/mdr/root/ct/sdtmct/codelists/C182521", "title": "Version-agnostic anchor resource for codelist C182521", "type": "Root Value Domain"}, "self": {"href": "/mdr/ct/packages/sdtmct-2022-12-16/codelists/C182521", "title": "CDISC Clinical Classification Kurtzke Functional System Scores KFSS108 Standardized Character Response Terminology", "type": "Code List"}}, "conceptId": "C182521", "definition": "Kurtzke Functional System Scores standardized character result for KFSS108 test and test code.", "extensible": "false", "name": "Kurtzke Functional System Scores Clinical Classification STRESC for KFSS108 TN/TC", "preferredTerm": "CDISC Clinical Classification Kurtzke Functional System Scores KFSS108 Standardized Character Response Terminology", "submissionValue": "KFSS108STR", "synonyms": ["Kurtzke Functional System Scores Clinical Classification STRESC for KFSS108 TN/TC"], "terms": [{"conceptId": "C182879", "definition": "Kurtzke Functional System Scores standardized character result for KFSS108-None.", "preferredTerm": "Kurtzke Functional System Scores KFSS108 Standardized Character Result 0", "submissionValue": "0", "synonyms": ["KFSS108-0"]}, {"conceptId": "C182880", "definition": "Kurtzke Functional System Scores standardized character result for KFSS108-Any other neurologic findings attributed to MS (specify).", "preferredTerm": "Kurtzke Functional System Scores KFSS108 Standardized Character Result 1", "submissionValue": "1", "synonyms": ["KFSS108-1"]}, {"conceptId": "C182881", "definition": "Kurtzke Functional System Scores standardized character result for KFSS108-Unknown.", "preferredTerm": "Kurtzke Functional System Scores KFSS108 Standardized Character Result Unknown", "submissionValue": "Unknown", "synonyms": ["KFSS108-Unknown"]}]}