{"_links": {"parentPackage": {"href": "/mdr/ct/packages/sdtmct-2022-12-16", "title": "SDTM Controlled Terminology Package 52 Effective 2022-12-16", "type": "Terminology"}, "priorVersion": {"href": "/mdr/ct/packages/sdtmct-2022-09-30/codelists/C182492", "title": "CDISC Clinical Classification Acute Physiology and Chronic Health Evaluation II APCH107 Original Response Terminology", "type": "Code List"}, "rootItem": {"href": "/mdr/root/ct/sdtmct/codelists/C182492", "title": "Version-agnostic anchor resource for codelist C182492", "type": "Root Value Domain"}, "self": {"href": "/mdr/ct/packages/sdtmct-2022-12-16/codelists/C182492", "title": "CDISC Clinical Classification Acute Physiology and Chronic Health Evaluation II APCH107 Original Response Terminology", "type": "Code List"}}, "conceptId": "C182492", "definition": "Acute Physiology and Chronic Health Evaluation II original result for APCH107 test and test code.", "extensible": "false", "name": "Acute Physiology and Chronic Health Evaluation II Clinical Classification ORRES for APCH107 TN/TC", "preferredTerm": "CDISC Clinical Classification Acute Physiology and Chronic Health Evaluation II APCH107 Original Response Terminology", "submissionValue": "APCH107OR", "synonyms": ["Acute Physiology and Chronic Health Evaluation II Clinical Classification ORRES for APCH107 TN/TC"], "terms": [{"conceptId": "C182974", "definition": "Acute Physiology and Chronic Health Evaluation II original result for APCH107-111-119.", "preferredTerm": "Acute Physiology and Chronic Health Evaluation II APCH107 Original Result - 111-119", "submissionValue": "111-119", "synonyms": ["APCH107-111-119"]}, {"conceptId": "C182973", "definition": "Acute Physiology and Chronic Health Evaluation II original result for APCH107-120-129.", "preferredTerm": "Acute Physiology and Chronic Health Evaluation II APCH107 Original Result - 120-129", "submissionValue": "120-129", "synonyms": ["APCH107-120-129"]}, {"conceptId": "C182972", "definition": "Acute Physiology and Chronic Health Evaluation II original result for APCH107-130-149.", "preferredTerm": "Acute Physiology and Chronic Health Evaluation II APCH107 Original Result - 130-149", "submissionValue": "130-149", "synonyms": ["APCH107-130-149"]}, {"conceptId": "C182971", "definition": "Acute Physiology and Chronic Health Evaluation II original result for APCH107-150-154.", "preferredTerm": "Acute Physiology and Chronic Health Evaluation II APCH107 Original Result - 150-154", "submissionValue": "150-154", "synonyms": ["APCH107-150-154"]}, {"conceptId": "C182970", "definition": "Acute Physiology and Chronic Health Evaluation II original result for APCH107-155-159.", "preferredTerm": "Acute Physiology and Chronic Health Evaluation II APCH107 Original Result - 155-159", "submissionValue": "155-159", "synonyms": ["APCH107-155-159"]}, {"conceptId": "C182969", "definition": "Acute Physiology and Chronic Health Evaluation II original result for APCH107-160-179.", "preferredTerm": "Acute Physiology and Chronic Health Evaluation II APCH107 Original Result - 160-179", "submissionValue": "160-179", "synonyms": ["APCH107-160-179"]}, {"conceptId": "C182975", "definition": "Acute Physiology and Chronic Health Evaluation II original result for APCH107-Less than or equal to 110.", "preferredTerm": "Acute Physiology and Chronic Health Evaluation II APCH107 Original Result - <=110", "submissionValue": "<=110", "synonyms": ["APCH107-<=110"]}, {"conceptId": "C182968", "definition": "Acute Physiology and Chronic Health Evaluation II original result for APCH107-Greater than or equal to 180.", "preferredTerm": "Acute Physiology and Chronic Health Evaluation II APCH107 Original Result - >=180", "submissionValue": ">=180", "synonyms": ["APCH107->=180"]}]}