{"_links": {"parentPackage": {"href": "/mdr/ct/packages/sdtmct-2022-12-16", "title": "SDTM Controlled Terminology Package 52 Effective 2022-12-16", "type": "Terminology"}, "priorVersion": {"href": "/mdr/ct/packages/sdtmct-2022-09-30/codelists/C182478", "title": "CDISC Clinical Classification Kurtzke Functional System Scores KFSS103 Original Response Terminology", "type": "Code List"}, "rootItem": {"href": "/mdr/root/ct/sdtmct/codelists/C182478", "title": "Version-agnostic anchor resource for codelist C182478", "type": "Root Value Domain"}, "self": {"href": "/mdr/ct/packages/sdtmct-2022-12-16/codelists/C182478", "title": "CDISC Clinical Classification Kurtzke Functional System Scores KFSS103 Original Response Terminology", "type": "Code List"}}, "conceptId": "C182478", "definition": "Kurtzke Functional System Scores original result for KFSS103 test and test code.", "extensible": "false", "name": "Kurtzke Functional System Scores Clinical Classification ORRES for KFSS103 TN/TC", "preferredTerm": "CDISC Clinical Classification Kurtzke Functional System Scores KFSS103 Original Response Terminology", "submissionValue": "KFSS103OR", "synonyms": ["Kurtzke Functional System Scores Clinical Classification ORRES for KFSS103 TN/TC"], "terms": [{"conceptId": "C182805", "definition": "Kurtzke Functional System Scores original result for KFSS103-Inability to swallow or speak.", "preferredTerm": "Kurtzke Functional System Scores KFSS103 Original Result - Inability to swallow or speak", "submissionValue": "Inability to swallow or speak", "synonyms": ["KFSS103-Inability to swallow or speak"]}, {"conceptId": "C182804", "definition": "Kurtzke Functional System Scores original result for KFSS103-Marked dysarthria or other marked disability.", "preferredTerm": "Kurtzke Functional System Scores KFSS103 Original Result - Marked dysarthria or other marked disability", "submissionValue": "Marked dysarthria or other marked disability", "synonyms": ["KFSS103-Marked dysarthria or other marked disability"]}, {"conceptId": "C182802", "definition": "Kurtzke Functional System Scores original result for KFSS103-Moderate nystagmus or other mild disability.", "preferredTerm": "Kurtzke Functional System Scores KFSS103 Original Result - Moderate nystagmus or other mild disability", "submissionValue": "Moderate nystagmus or other mild disability", "synonyms": ["KFSS103-Moderate nystagmus or other mild disability"]}, {"conceptId": "C182800", "definition": "Kurtzke Functional System Scores original result for KFSS103-Normal.", "preferredTerm": "Kurtzke Functional System Scores KFSS103 Original Result - Normal", "submissionValue": "Normal", "synonyms": ["KFSS103-Normal."]}, {"conceptId": "C182803", "definition": "Kurtzke Functional System Scores original result for KFSS103-Severe nystagmus, marked extraocular weakness, or moderate disability of other cranial nerves.", "preferredTerm": "Kurtzke Functional System Scores KFSS103 Original Result - Severe nystagmus, marked extraocular weakness, or moderate disability of other cranial nerves", "submissionValue": "Severe nystagmus, marked extraocular weakness, or moderate disability of other cranial nerves", "synonyms": ["KFSS103-Severe nystagmus, marked extraocular weakness, or moderate disability of other cranial nerves"]}, {"conceptId": "C182801", "definition": "Kurtzke Functional System Scores original result for KFSS103-Signs only.", "preferredTerm": "Kurtzke Functional System Scores KFSS103 Original Result - Signs only", "submissionValue": "Signs only", "synonyms": ["KFSS103-Signs only"]}, {"conceptId": "C182806", "definition": "Kurtzke Functional System Scores original result for KFSS103-Unknown.", "preferredTerm": "Kurtzke Functional System Scores KFSS103 Original Result - Unknown", "submissionValue": "Unknown", "synonyms": ["KFSS103-Unknown"]}]}