{"_links": {"parentPackage": {"href": "/mdr/ct/packages/sdtmct-2022-12-16", "title": "SDTM Controlled Terminology Package 52 Effective 2022-12-16", "type": "Terminology"}, "priorVersion": {"href": "/mdr/ct/packages/sdtmct-2022-09-30/codelists/C182515", "title": "CDISC Clinical Classification Kurtzke Functional System Scores KFSS1SET1 Standardized Character Response Terminology", "type": "Code List"}, "rootItem": {"href": "/mdr/root/ct/sdtmct/codelists/C182515", "title": "Version-agnostic anchor resource for codelist C182515", "type": "Root Value Domain"}, "self": {"href": "/mdr/ct/packages/sdtmct-2022-12-16/codelists/C182515", "title": "CDISC Clinical Classification Kurtzke Functional System Scores KFSS1SET1 Standardized Character Response Terminology", "type": "Code List"}}, "conceptId": "C182515", "definition": "Kurtzke Functional System Scores standardized character result for KFSS102A and KFSS106A test and test code.", "extensible": "false", "name": "Kurtzke Functional System Scores Clinical Classification STRESC the Same as KFSS102A TN/TC", "preferredTerm": "CDISC Clinical Classification Kurtzke Functional System Scores KFSS1SET1 Standardized Character Response Terminology", "submissionValue": "KFSS1SET1STR", "synonyms": ["Kurtzke Functional System Scores Clinical Classification STRESC the Same as KFSS102A TN/TC"], "terms": [{"conceptId": "C182798", "definition": "Kurtzke Functional System Scores standardized character result for KFSS102A and KFSS106A-Checked.", "preferredTerm": "Kurtzke Functional System Scores KFSS1SET1 Standardized Character Result Checked - Checked", "submissionValue": "CHECKED", "synonyms": ["KFSS1SET1-CHECKED"]}, {"conceptId": "C182799", "definition": "Kurtzke Functional System Scores standardized character result for KFSS102A and KFSS106A-Not checked.", "preferredTerm": "Kurtzke Functional System Scores KFSS1SET1 Standardized Character Result Not Checked - Not Checked", "submissionValue": "NOT CHECKED", "synonyms": ["KFSS1SET1-NOT CHECKED"]}]}