{"_links": {"parentPackage": {"href": "/mdr/ct/packages/sdtmct-2022-12-16", "title": "SDTM Controlled Terminology Package 52 Effective 2022-12-16", "type": "Terminology"}, "priorVersion": {"href": "/mdr/ct/packages/sdtmct-2022-09-30/codelists/C182513", "title": "CDISC Clinical Classification Kurtzke Functional System Scores KFSS101 Standardized Character Response Terminology", "type": "Code List"}, "rootItem": {"href": "/mdr/root/ct/sdtmct/codelists/C182513", "title": "Version-agnostic anchor resource for codelist C182513", "type": "Root Value Domain"}, "self": {"href": "/mdr/ct/packages/sdtmct-2022-12-16/codelists/C182513", "title": "CDISC Clinical Classification Kurtzke Functional System Scores KFSS101 Standardized Character Response Terminology", "type": "Code List"}}, "conceptId": "C182513", "definition": "Kurtzke Functional System Scores standardized character result for KFSS101 test and test code.", "extensible": "false", "name": "Kurtzke Functional System Scores Clinical Classification STRESC for KFSS101 TN/TC", "preferredTerm": "CDISC Clinical Classification Kurtzke Functional System Scores KFSS101 Standardized Character Response Terminology", "submissionValue": "KFSS101STR", "synonyms": ["Kurtzke Functional System Scores Clinical Classification STRESC for KFSS101 TN/TC"], "terms": [{"conceptId": "C182774", "definition": "Kurtzke Functional System Scores standardized character result for KFSS101-Normal.", "preferredTerm": "Kurtzke Functional System Scores KFSS101 Standardized Character Result 0", "submissionValue": "0", "synonyms": ["KFSS101-0"]}, {"conceptId": "C182775", "definition": "Kurtzke Functional System Scores standardized character result for KFSS101-Abnormal signs without disability.", "preferredTerm": "Kurtzke Functional System Scores KFSS101 Standardized Character Result 1", "submissionValue": "1", "synonyms": ["KFSS101-1"]}, {"conceptId": "C182776", "definition": "Kurtzke Functional System Scores standardized character result for KFSS101-Minimal disability.", "preferredTerm": "Kurtzke Functional System Scores KFSS101 Standardized Character Result 2", "submissionValue": "2", "synonyms": ["KFSS101-2"]}, {"conceptId": "C182777", "definition": "Kurtzke Functional System Scores standardized character result for KFSS101-Mild or moderate paraparesis or hemiparesis; severe monoparesis.", "preferredTerm": "Kurtzke Functional System Scores KFSS101 Standardized Character Result 3", "submissionValue": "3", "synonyms": ["KFSS101-3"]}, {"conceptId": "C182778", "definition": "Kurtzke Functional System Scores standardized character result for KFSS101-Marked paraparesis or hemiparesis; moderate quadriparesis; or monoplegia.", "preferredTerm": "Kurtzke Functional System Scores KFSS101 Standardized Character Result 4", "submissionValue": "4", "synonyms": ["KFSS101-4"]}, {"conceptId": "C182779", "definition": "Kurtzke Functional System Scores standardized character result for KFSS101-Paraplegia, hemiplegia, or marked quadriparesis.", "preferredTerm": "Kurtzke Functional System Scores KFSS101 Standardized Character Result 5", "submissionValue": "5", "synonyms": ["KFSS101-5"]}, {"conceptId": "C182780", "definition": "Kurtzke Functional System Scores standardized character result for KFSS101-Quadriplegia.", "preferredTerm": "Kurtzke Functional System Scores KFSS101 Standardized Character Result 6", "submissionValue": "6", "synonyms": ["KFSS101-6"]}, {"conceptId": "C182781", "definition": "Kurtzke Functional System Scores standardized character result for KFSS101-Unknown.", "preferredTerm": "Kurtzke Functional System Scores KFSS101 Standardized Character Result Unknown", "submissionValue": "Unknown", "synonyms": ["KFSS101-Unknown"]}]}