{"_links": {"parentPackage": {"href": "/mdr/ct/packages/sdtmct-2022-12-16", "title": "SDTM Controlled Terminology Package 52 Effective 2022-12-16", "type": "Terminology"}, "priorVersion": {"href": "/mdr/ct/packages/sdtmct-2022-09-30/codelists/C182489", "title": "CDISC Clinical Classification Acute Physiology and Chronic Health Evaluation II APCH105B Original Response Terminology", "type": "Code List"}, "rootItem": {"href": "/mdr/root/ct/sdtmct/codelists/C182489", "title": "Version-agnostic anchor resource for codelist C182489", "type": "Root Value Domain"}, "self": {"href": "/mdr/ct/packages/sdtmct-2022-12-16/codelists/C182489", "title": "CDISC Clinical Classification Acute Physiology and Chronic Health Evaluation II APCH105B Original Response Terminology", "type": "Code List"}}, "conceptId": "C182489", "definition": "Acute Physiology and Chronic Health Evaluation II original result for APCH105B test and test code.", "extensible": "false", "name": "Acute Physiology and Chronic Health Evaluation II Clinical Classification ORRES for APCH105B TN/TC", "preferredTerm": "CDISC Clinical Classification Acute Physiology and Chronic Health Evaluation II APCH105B Original Response Terminology", "submissionValue": "APCH105BOR", "synonyms": ["Acute Physiology and Chronic Health Evaluation II Clinical Classification ORRES for APCH105B TN/TC"], "terms": [{"conceptId": "C182938", "definition": "Acute Physiology and Chronic Health Evaluation II original result for APCH105B-55-60.", "preferredTerm": "Acute Physiology and Chronic Health Evaluation II APCH105B Original Result - 55-60", "submissionValue": "55-60", "synonyms": ["APCH105B-55-60"]}, {"conceptId": "C182937", "definition": "Acute Physiology and Chronic Health Evaluation II original result for APCH105B-61-70.", "preferredTerm": "Acute Physiology and Chronic Health Evaluation II APCH105B Original Result - 61-70", "submissionValue": "61-70", "synonyms": ["APCH105B-61-70"]}, {"conceptId": "C182939", "definition": "Acute Physiology and Chronic Health Evaluation II original result for APCH105B-Less than 55.", "preferredTerm": "Acute Physiology and Chronic Health Evaluation II APCH105B Original Result - <55", "submissionValue": "<55", "synonyms": ["APCH105B-<55"]}, {"conceptId": "C182936", "definition": "Acute Physiology and Chronic Health Evaluation II original result for APCH105B-Greater than 70.", "preferredTerm": "Acute Physiology and Chronic Health Evaluation II APCH105B Original Result - >70", "submissionValue": ">70", "synonyms": ["APCH105B->70"]}]}