{"_links": {"parentPackage": {"href": "/mdr/ct/packages/sdtmct-2022-12-16", "title": "SDTM Controlled Terminology Package 52 Effective 2022-12-16", "type": "Terminology"}, "priorVersion": {"href": "/mdr/ct/packages/sdtmct-2022-09-30/codelists/C184331", "title": "CDISC SDTM ECG T Wave Offset Method Response Terminology", "type": "Code List"}, "rootItem": {"href": "/mdr/root/ct/sdtmct/codelists/C184331", "title": "Version-agnostic anchor resource for codelist C184331", "type": "Root Value Domain"}, "self": {"href": "/mdr/ct/packages/sdtmct-2022-12-16/codelists/C184331", "title": "CDISC SDTM ECG T Wave Offset Method Response Terminology", "type": "Code List"}}, "conceptId": "C184331", "definition": "A terminology codelist relevant to the methods used to determine the end of an ECG T wave.", "extensible": "true", "name": "ECG T Wave Offset Method Response", "preferredTerm": "CDISC SDTM ECG T Wave Offset Method Response Terminology", "submissionValue": "TWOFFMTH", "synonyms": ["ECG T Wave Offset Method Response"], "terms": [{"conceptId": "C184711", "definition": "A method to determine the end of the T wave. A tangent is drawn to the steepest descending slope of the T wave between its summit and the notch; the end of the T-wave is defined as the point of intersection of this tangent with the base line. (Lepeschkin E, Surawicz B. The measurement of the Q-T interval of the electrocardiogram. Circulation 1952; 6: 378-88).", "preferredTerm": "Tangent Method", "submissionValue": "TANGENT METHOD", "synonyms": ["Slope Method"]}, {"conceptId": "C184712", "definition": "A method to determine the end of the T wave. A line parallel to the isoelectric line at a fraction (e.g. 5%) of the maximum T wave amplitue is constructed. The intercept of the descending limb of the T wave with this line is then defined as the end of the T wave.", "preferredTerm": "Threshold Method", "submissionValue": "THRESHOLD METHOD"}]}