{"_links": {"parentPackage": {"href": "/mdr/ct/packages/sdtmct-2022-12-16", "title": "SDTM Controlled Terminology Package 52 Effective 2022-12-16", "type": "Terminology"}, "priorVersion": {"href": "/mdr/ct/packages/sdtmct-2022-09-30/codelists/C184330", "title": "CDISC SDTM Holter ECG Read Method Response Terminology", "type": "Code List"}, "rootItem": {"href": "/mdr/root/ct/sdtmct/codelists/C184330", "title": "Version-agnostic anchor resource for codelist C184330", "type": "Root Value Domain"}, "self": {"href": "/mdr/ct/packages/sdtmct-2022-12-16/codelists/C184330", "title": "CDISC SDTM Holter ECG Read Method Response Terminology", "type": "Code List"}}, "conceptId": "C184330", "definition": "Terminology relevant to the method for how the Holter ECG is read, with respect to how much human intervention is involved.", "extensible": "true", "name": "Holter ECG Read Method Response", "preferredTerm": "CDISC SDTM Holter ECG Read Method Response Terminology", "submissionValue": "HEGRDMTH", "synonyms": ["Holter ECG Read Method Response"], "terms": [{"conceptId": "C70669", "definition": "Of or related to a process performed without human intervention.", "preferredTerm": "Automatic", "submissionValue": "AUTOMATIC"}, {"conceptId": "C63513", "definition": "Of or related to a process performed by hand.", "preferredTerm": "Manual", "submissionValue": "MANUAL"}, {"conceptId": "C172484", "definition": "Of or related to a process performed using a combination of manual and automatic means.", "preferredTerm": "Semi-Automatic", "submissionValue": "SEMI-AUTOMATIC"}]}