{"_links": {"parentPackage": {"href": "/mdr/ct/packages/sdtmct-2022-12-16", "title": "SDTM Controlled Terminology Package 52 Effective 2022-12-16", "type": "Terminology"}, "priorVersion": {"href": "/mdr/ct/packages/sdtmct-2022-09-30/codelists/C189694", "title": "CDISC Clinical Classification Brief Psychiatric Rating Scale-Anchored BPRSA118 Standardized Character Response Terminology", "type": "Code List"}, "rootItem": {"href": "/mdr/root/ct/sdtmct/codelists/C189694", "title": "Version-agnostic anchor resource for codelist C189694", "type": "Root Value Domain"}, "self": {"href": "/mdr/ct/packages/sdtmct-2022-12-16/codelists/C189694", "title": "CDISC Clinical Classification Brief Psychiatric Rating Scale-Anchored BPRSA118 Standardized Character Response Terminology", "type": "Code List"}}, "conceptId": "C189694", "definition": "Brief Psychiatric Rating Scale-Anchored standardized character result for BPRSA118 test and test code.", "extensible": "false", "name": "Brief Psychiatric Rating Scale-Anchored Clinical Classification STRESC for BPRSA118 TN/TC", "preferredTerm": "CDISC Clinical Classification Brief Psychiatric Rating Scale-Anchored BPRSA118 Standardized Character Response Terminology", "submissionValue": "BPRSA118STR", "synonyms": ["Brief Psychiatric Rating Scale-Anchored Clinical Classification STRESC for BPRSA118 TN/TC"], "terms": [{"conceptId": "C189741", "definition": "Brief Psychiatric Rating Scale-Anchored standardized character result BPRSA118-Not observed.", "preferredTerm": "Brief Psychiatric Rating Scale-Anchored BPRSA118 Standardized Character Result 1", "submissionValue": "1", "synonyms": ["BPRSA118-1"]}, {"conceptId": "C189742", "definition": "Brief Psychiatric Rating Scale-Anchored standardized character result for BPRSA118-Very mild.", "preferredTerm": "Brief Psychiatric Rating Scale-Anchored BPRSA118 Standardized Character Result 2", "submissionValue": "2", "synonyms": ["BPRSA118-2"]}, {"conceptId": "C189743", "definition": "Brief Psychiatric Rating Scale-Anchored standardized character result for BPRSA118-Mild.", "preferredTerm": "Brief Psychiatric Rating Scale-Anchored BPRSA118 Standardized Character Result 3", "submissionValue": "3", "synonyms": ["BPRSA118-3"]}, {"conceptId": "C189744", "definition": "Brief Psychiatric Rating Scale-Anchored standardized character result for BPRSA118-Moderate.", "preferredTerm": "Brief Psychiatric Rating Scale-Anchored BPRSA118 Standardized Character Result 4", "submissionValue": "4", "synonyms": ["BPRSA118-4"]}, {"conceptId": "C189745", "definition": "Brief Psychiatric Rating Scale-Anchored standardized character result for BPRSA118-Moderately severe.", "preferredTerm": "Brief Psychiatric Rating Scale-Anchored BPRSA118 Standardized Character Result 5", "submissionValue": "5", "synonyms": ["BPRSA118-5"]}, {"conceptId": "C189746", "definition": "Brief Psychiatric Rating Scale-Anchored standardized character result for BPRSA118-Severe.", "preferredTerm": "Brief Psychiatric Rating Scale-Anchored BPRSA118 Standardized Character Result 6", "submissionValue": "6", "synonyms": ["BPRSA118-6"]}, {"conceptId": "C189747", "definition": "Brief Psychiatric Rating Scale-Anchored standardized character result for BPRSA118-Very severe.", "preferredTerm": "Brief Psychiatric Rating Scale-Anchored BPRSA118 Standardized Character Result 7", "submissionValue": "7", "synonyms": ["BPRSA118-7"]}, {"conceptId": "C189748", "definition": "Brief Psychiatric Rating Scale-Anchored standardized character result for BPRSA118-Cannot be assessed adequately because of severe formal thought disorder, uncooperativeness, or marked evasiveness/guardedness; or not assessed.", "preferredTerm": "Brief Psychiatric Rating Scale-Anchored BPRSA118 Standardized Character Result 9", "submissionValue": "9", "synonyms": ["BPRSA118-9"]}]}