{"_links": {"parentPackage": {"href": "/mdr/ct/packages/sdtmct-2022-12-16", "title": "SDTM Controlled Terminology Package 52 Effective 2022-12-16", "type": "Terminology"}, "rootItem": {"href": "/mdr/root/ct/sdtmct/codelists/C190863", "title": "Version-agnostic anchor resource for codelist C190863", "type": "Root Value Domain"}, "self": {"href": "/mdr/ct/packages/sdtmct-2022-12-16/codelists/C190863", "title": "CDISC SDTM Auricular Findings Test Code Terminology", "type": "Code List"}}, "conceptId": "C190863", "definition": "A terminology codelist to describe the test code for a physiological examination of the auditory system.", "extensible": "true", "name": "Auricular Findings Test Code", "preferredTerm": "CDISC SDTM Auricular Findings Test Code Terminology", "submissionValue": "AUTESTCD", "synonyms": ["Auricular Findings Test Code"], "terms": [{"conceptId": "C191216", "definition": "An interpretive summary of the tympanogram tracing result.", "preferredTerm": "Tympanogram Tracing Type", "submissionValue": "TMPTRTYP", "synonyms": ["Tympanogram Tracing Type", "Tympanogram Type"]}]}