{"_links": {"parentPackage": {"href": "/mdr/ct/packages/sdtmct-2022-12-16", "title": "SDTM Controlled Terminology Package 52 Effective 2022-12-16", "type": "Terminology"}, "rootItem": {"href": "/mdr/root/ct/sdtmct/codelists/C190862", "title": "Version-agnostic anchor resource for codelist C190862", "type": "Root Value Domain"}, "self": {"href": "/mdr/ct/packages/sdtmct-2022-12-16/codelists/C190862", "title": "CDISC SDTM Auricular Findings Test Name Terminology", "type": "Code List"}}, "conceptId": "C190862", "definition": "A terminology codelist to describe the test name for a physiological examination of the auditory system.", "extensible": "true", "name": "Auricular Findings Test Name", "preferredTerm": "CDISC SDTM Auricular Findings Test Name Terminology", "submissionValue": "AUTEST", "synonyms": ["Auricular Findings Test Name"], "terms": [{"conceptId": "C191216", "definition": "An interpretive summary of the tympanogram tracing result.", "preferredTerm": "Tympanogram Tracing Type", "submissionValue": "Tympanogram Tracing Type", "synonyms": ["Tympanogram Tracing Type", "Tympanogram Type"]}]}