{"_links": {"parentPackage": {"href": "/mdr/ct/packages/sdtmct-2022-12-16", "title": "SDTM Controlled Terminology Package 52 Effective 2022-12-16", "type": "Terminology"}, "rootItem": {"href": "/mdr/root/ct/sdtmct/codelists/C190926", "title": "Version-agnostic anchor resource for codelist C190926", "type": "Root Value Domain"}, "self": {"href": "/mdr/ct/packages/sdtmct-2022-12-16/codelists/C190926", "title": "CDISC Clinical Classification Harvey-Bradshaw Index Test Code Terminology", "type": "Code List"}}, "conceptId": "C190926", "definition": "Harvey-Bradshaw Index test code.", "extensible": "false", "name": "Harvey-Bradshaw Index Clinical Classification Test Code", "preferredTerm": "CDISC Clinical Classification Harvey-Bradshaw Index Test Code Terminology", "submissionValue": "HBI01TC", "synonyms": ["Harvey-Bradshaw Index Clinical Classification Test Code"], "terms": [{"conceptId": "C191044", "definition": "Harvey-Bradshaw Index - Patient's general well-being (for the previous day).", "preferredTerm": "HBI - General Well-being", "submissionValue": "HBI0101", "synonyms": ["HBI01-General Well-being"]}, {"conceptId": "C191045", "definition": "Harvey-Bradshaw Index - Abdominal pain (for the previous day).", "preferredTerm": "HBI - Abdominal Pain", "submissionValue": "HBI0102", "synonyms": ["HBI01-Abdominal Pain"]}, {"conceptId": "C191046", "definition": "Harvey-Bradshaw Index - Number of liquid stools (for the previous day).", "preferredTerm": "HBI - Number Liquid Stools", "submissionValue": "HBI0103", "synonyms": ["HBI01-Number Liquid Stools"]}, {"conceptId": "C191047", "definition": "Harvey-Bradshaw Index - Abdominal mass.", "preferredTerm": "HBI - Abdominal Mass", "submissionValue": "HBI0104", "synonyms": ["HBI01-Abdominal Mass"]}, {"conceptId": "C191048", "definition": "Harvey-Bradshaw Index - Complication: Arthralgia.", "preferredTerm": "HBI - Complication: Arthralgia", "submissionValue": "HBI0105A", "synonyms": ["HBI01-Complication: Arthralgia"]}, {"conceptId": "C191049", "definition": "Harvey-Bradshaw Index - Complication: Uveitis.", "preferredTerm": "HBI - Complication: Uveitis", "submissionValue": "HBI0105B", "synonyms": ["HBI01-Complication: Uveitis"]}, {"conceptId": "C191050", "definition": "Harvey-Bradshaw Index - Complication: Erythema nodosum.", "preferredTerm": "HBI - Complication: Erythema Nodosum", "submissionValue": "HBI0105C", "synonyms": ["HBI01-Complication: Erythema Nodosum"]}, {"conceptId": "C191051", "definition": "Harvey-Bradshaw Index - Complication: Aphthous ulcers.", "preferredTerm": "HBI - Complication: Aphthous Ulcers", "submissionValue": "HBI0105D", "synonyms": ["HBI01-Complication: Aphthous Ulcers"]}, {"conceptId": "C191052", "definition": "Harvey-Bradshaw Index - Complication: Pyoderma gangrenosum.", "preferredTerm": "HBI - Complication: Pyoderma Gangrenosum", "submissionValue": "HBI0105E", "synonyms": ["HBI01-Complication: Pyoderma Gangrenosum"]}, {"conceptId": "C191053", "definition": "Harvey-Bradshaw Index - Complication: Anal fissures.", "preferredTerm": "HBI - Complication: Anal Fistula", "submissionValue": "HBI0105F", "synonyms": ["HBI01-Complication: Anal Fistula"]}, {"conceptId": "C191054", "definition": "Harvey-Bradshaw Index - Complication: New fistula.", "preferredTerm": "HBI - Complication: New Fistula", "submissionValue": "HBI0105G", "synonyms": ["HBI01-Complication: New Fistula"]}, {"conceptId": "C191055", "definition": "Harvey-Bradshaw Index - Complication: Abscess.", "preferredTerm": "HBI - Complication: Abscess", "submissionValue": "HBI0105H", "synonyms": ["HBI01-Complication: Abscess"]}, {"conceptId": "C191056", "definition": "Harvey-Bradshaw Index - Total score.", "preferredTerm": "HBI - Total Score", "submissionValue": "HBI0106", "synonyms": ["HBI01-Total Score"]}]}