{"_links": {"parentPackage": {"href": "/mdr/ct/packages/sdtmct-2022-12-16", "title": "SDTM Controlled Terminology Package 52 Effective 2022-12-16", "type": "Terminology"}, "rootItem": {"href": "/mdr/root/ct/sdtmct/codelists/C190933", "title": "Version-agnostic anchor resource for codelist C190933", "type": "Root Value Domain"}, "self": {"href": "/mdr/ct/packages/sdtmct-2022-12-16/codelists/C190933", "title": "CDISC Clinical Classification Psoriasis Area and Severity Index Fredriksson Version Test Name Terminology", "type": "Code List"}}, "conceptId": "C190933", "definition": "Psoriasis Area and Severity Index Version Fredriksson test name.", "extensible": "false", "name": "Psoriasis Area and Severity Index Version Fredriksson Clinical Classification Test Name", "preferredTerm": "CDISC Clinical Classification Psoriasis Area and Severity Index Fredriksson Version Test Name Terminology", "submissionValue": "PASI03TN", "synonyms": ["Psoriasis Area and Severity Index Version Fredriksson Clinical Classification Test Name"], "terms": [{"conceptId": "C191069", "definition": "Psoriasis Area and Severity Index Version Fredriksson - Head: Area score.", "preferredTerm": "PASI Fredriksson Version - Head: Area Score", "submissionValue": "PASI03-Head: Area Score", "synonyms": ["PASI03-Head: Area Score"]}, {"conceptId": "C191068", "definition": "Psoriasis Area and Severity Index Version Fredriksson - Head: Desquamation/Scaling symptom score.", "preferredTerm": "PASI Fredriksson Version - Head: Desquamation/Scaling", "submissionValue": "PASI03-Head: Desquamation/Scaling", "synonyms": ["PASI03-Head: Desquamation/Scaling"]}, {"conceptId": "C191066", "definition": "Psoriasis Area and Severity Index Version Fredriksson - Head: Erythema/Redness symptom score.", "preferredTerm": "PASI Fredriksson Version - Head: Erythema/Redness", "submissionValue": "PASI03-Head: Erythema/Redness", "synonyms": ["PASI03-Head: Erythema/Redness"]}, {"conceptId": "C191082", "definition": "Psoriasis Area and Severity Index Version Fredriksson - Head: Sum of symptom scores.", "preferredTerm": "PASI Fredriksson Version - Head: Sum of Symptom Scores", "submissionValue": "PASI03-Head: Sum of Symptom Scores", "synonyms": ["PASI03-Head: Sum of Symptom Scores"]}, {"conceptId": "C191084", "definition": "Psoriasis Area and Severity Index Version Fredriksson - Head: Sum x area x 0.1.", "preferredTerm": "PASI Fredriksson Version - Head: Sum X Area X 0.1", "submissionValue": "PASI03-Head: Sum X Area X 0.1", "synonyms": ["PASI03-Head: Sum X Area X 0.1"]}, {"conceptId": "C191083", "definition": "Psoriasis Area and Severity Index Version Fredriksson - Head: Sum of symptom scores x area score.", "preferredTerm": "PASI Fredriksson Version - Head: Sum X Area", "submissionValue": "PASI03-Head: Sum X Area", "synonyms": ["PASI03-Head: Sum X Area"]}, {"conceptId": "C191067", "definition": "Psoriasis Area and Severity Index Version Fredriksson - Head: Thickness/Induration symptom score.", "preferredTerm": "PASI Fredriksson Version - Head: Thickness/Induration", "submissionValue": "PASI03-Head: Thickness/Induration", "synonyms": ["PASI03-Head: Thickness/Induration"]}, {"conceptId": "C191081", "definition": "Psoriasis Area and Severity Index Version Fredriksson - Lower Extremities: Area score.", "preferredTerm": "PASI Fredriksson Version - Lower Extremities: Area Score", "submissionValue": "PASI03-Low Extrem: Area Score", "synonyms": ["PASI03-Low Extrem: Area Score"]}, {"conceptId": "C191080", "definition": "Psoriasis Area and Severity Index Version Fredriksson - Lower Extremities: Desquamation/Scaling symptom score.", "preferredTerm": "PASI Fredriksson Version - Lower Extremities: Desquamation/Scaling", "submissionValue": "PASI03-Low Extrem: Desquamation/Scaling", "synonyms": ["PASI03-Low Extrem: Desquamation/Scaling"]}, {"conceptId": "C191078", "definition": "Psoriasis Area and Severity Index Version Fredriksson - Lower Extremities: Erythema/Redness symptom score.", "preferredTerm": "PASI Fredriksson Version - Lower Extremities: Erythema/Redness", "submissionValue": "PASI03-Low Extrem: Erythema/Redness", "synonyms": ["PASI03-Low Extrem: Erythema/Redness"]}, {"conceptId": "C191091", "definition": "Psoriasis Area and Severity Index Version Fredriksson - Lower Extremities: Sum of symptom scores.", "preferredTerm": "PASI Fredriksson Version - Lower Extremities: Sum of Symptom Scores", "submissionValue": "PASI03-Low Extrem: Sum of Symptom Scores", "synonyms": ["PASI03-Low Extrem: Sum of Symptom Scores"]}, {"conceptId": "C191093", "definition": "Psoriasis Area and Severity Index Version Fredriksson - Lower Extremities: Sum x area x 0.4.", "preferredTerm": "PASI Fredriksson Version - Lower Extremities: Sum X Area X 0.4", "submissionValue": "PASI03-Low Extrem: Sum X Area X 0.4", "synonyms": ["PASI03-Low Extrem: Sum X Area X 0.4"]}, {"conceptId": "C191092", "definition": "Psoriasis Area and Severity Index Version Fredriksson - Lower Extremities: Sum of symptom scores x area score.", "preferredTerm": "PASI Fredriksson Version - Lower Extremities: Sum X Area", "submissionValue": "PASI03-Low Extrem: Sum X Area", "synonyms": ["PASI03-Low Extrem: Sum X Area"]}, {"conceptId": "C191079", "definition": "Psoriasis Area and Severity Index Version Fredriksson - Lower Extremities: Thickness/Induration symptom score.", "preferredTerm": "PASI Fredriksson Version - Lower Extremities: Thickness/Induration", "submissionValue": "PASI03-Low Extrem: Thickness/Induration", "synonyms": ["PASI03-Low Extrem: Thickness/Induration"]}, {"conceptId": "C191094", "definition": "Psoriasis Area and Severity Index Version Fredriksson - Total sum.", "preferredTerm": "PASI Fredriksson Version - Total Sum", "submissionValue": "PASI03-Total Sum", "synonyms": ["PASI03-Total Sum"]}, {"conceptId": "C191077", "definition": "Psoriasis Area and Severity Index Version Fredriksson - Trunk: Area score.", "preferredTerm": "PASI Fredriksson Version - Trunk: Area Score", "submissionValue": "PASI03-Trunk: Area Score", "synonyms": ["PASI03-Trunk: Area Score"]}, {"conceptId": "C191076", "definition": "Psoriasis Area and Severity Index Version Fredriksson - Trunk: Desquamation/Scaling symptom score.", "preferredTerm": "PASI Fredriksson Version - Trunk: Desquamation/Scaling", "submissionValue": "PASI03-Trunk: Desquamation/Scaling", "synonyms": ["PASI03-Trunk: Desquamation/Scaling"]}, {"conceptId": "C191074", "definition": "Psoriasis Area and Severity Index Version Fredriksson - Trunk: Erythema/Redness symptom score.", "preferredTerm": "PASI Fredriksson Version - Trunk: Erythema/Redness", "submissionValue": "PASI03-Trunk: Erythema/Redness", "synonyms": ["PASI03-Trunk: Erythema/Redness"]}, {"conceptId": "C191088", "definition": "Psoriasis Area and Severity Index Version Fredriksson - Trunk: Sum of symptom scores.", "preferredTerm": "PASI Fredriksson Version - Trunk: Sum of Symptom Scores", "submissionValue": "PASI03-Trunk: Sum of Symptom Scores", "synonyms": ["PASI03-Trunk: Sum of Symptom Scores"]}, {"conceptId": "C191090", "definition": "Psoriasis Area and Severity Index Version Fredriksson - Trunk: Sum x area x 0.3.", "preferredTerm": "PASI Fredriksson Version - Trunk: Sum X Area X 0.3", "submissionValue": "PASI03-Trunk: Sum X Area X 0.3", "synonyms": ["PASI03-Trunk: Sum X Area X 0.3"]}, {"conceptId": "C191089", "definition": "Psoriasis Area and Severity Index Version Fredriksson - Trunk: Sum of symptom scores x area score.", "preferredTerm": "PASI Fredriksson Version - Trunk: Sum X Area", "submissionValue": "PASI03-Trunk: Sum X Area", "synonyms": ["PASI03-Trunk: Sum X Area"]}, {"conceptId": "C191075", "definition": "Psoriasis Area and Severity Index Version Fredriksson - Trunk: Thickness/Induration symptom score.", "preferredTerm": "PASI Fredriksson Version - Trunk: Thickness/Induration", "submissionValue": "PASI03-Trunk: Thickness/Induration", "synonyms": ["PASI03-Trunk: Thickness/Induration"]}, {"conceptId": "C191073", "definition": "Psoriasis Area and Severity Index Version Fredriksson - Upper Extremities: Area score.", "preferredTerm": "PASI Fredriksson Version - Upper Extremities: Area Score", "submissionValue": "PASI03-Up Extrem: Area Score", "synonyms": ["PASI03-Up Extrem: Area Score"]}, {"conceptId": "C191072", "definition": "Psoriasis Area and Severity Index Version Fredriksson - Upper Extremities: Desquamation/Scaling symptom score.", "preferredTerm": "PASI Fredriksson Version - Upper Extremities: Desquamation/Scaling", "submissionValue": "PASI03-Up Extrem: Desquamation/Scaling", "synonyms": ["PASI03-Up Extrem: Desquamation/Scaling"]}, {"conceptId": "C191070", "definition": "Psoriasis Area and Severity Index Version Fredriksson - Upper Extremities: Erythema/Redness symptom score.", "preferredTerm": "PASI Fredriksson Version - Upper Extremities: Erythema/Redness", "submissionValue": "PASI03-Up Extrem: Erythema/Redness", "synonyms": ["PASI03-Up Extrem: Erythema/Redness"]}, {"conceptId": "C191085", "definition": "Psoriasis Area and Severity Index Version Fredriksson - Upper Extremities: Sum of symptom scores.", "preferredTerm": "PASI Fredriksson Version - Upper Extremities: Sum of Symptom Scores", "submissionValue": "PASI03-Up Extrem: Sum of Symptom Scores", "synonyms": ["PASI03-Up Extrem: Sum of Symptom Scores"]}, {"conceptId": "C191087", "definition": "Psoriasis Area and Severity Index Version Fredriksson - Upper Extremities: Sum x area x 0.2.", "preferredTerm": "PASI Fredriksson Version - Upper Extremities: Sum X Area X 0.2", "submissionValue": "PASI03-Up Extrem: Sum X Area X 0.2", "synonyms": ["PASI03-Up Extrem: Sum X Area X 0.2"]}, {"conceptId": "C191086", "definition": "Psoriasis Area and Severity Index Version Fredriksson - Upper Extremities: Sum of symptom scores x area score.", "preferredTerm": "PASI Fredriksson Version - Upper Extremities: Sum X Area", "submissionValue": "PASI03-Up Extrem: Sum X Area", "synonyms": ["PASI03-Up Extrem: Sum X Area"]}, {"conceptId": "C191071", "definition": "Psoriasis Area and Severity Index Version Fredriksson - Upper Extremities: Thickness/Induration symptom score.", "preferredTerm": "PASI Fredriksson Version - Upper Extremities: Thickness/Induration", "submissionValue": "PASI03-Up Extrem: Thickness/Induration", "synonyms": ["PASI03-Up Extrem: Thickness/Induration"]}]}