{"_links": {"parentPackage": {"href": "/mdr/ct/packages/sdtmct-2022-12-16", "title": "SDTM Controlled Terminology Package 52 Effective 2022-12-16", "type": "Terminology"}, "rootItem": {"href": "/mdr/root/ct/sdtmct/codelists/C190897", "title": "Version-agnostic anchor resource for codelist C190897", "type": "Root Value Domain"}, "self": {"href": "/mdr/ct/packages/sdtmct-2022-12-16/codelists/C190897", "title": "CDISC Clinical Classification Modified Van Assche Index MVAI103 Original Response Terminology", "type": "Code List"}}, "conceptId": "C190897", "definition": "Modified Van Assche Index original result for MVAI103 test and test code.", "extensible": "false", "name": "Modified Van Assche Index Clinical Classification ORRES for MVAI103 TN/TC", "preferredTerm": "CDISC Clinical Classification Modified Van Assche Index MVAI103 Original Response Terminology", "submissionValue": "MVAI103OR", "synonyms": ["Modified Van Assche Index Clinical Classification ORRES for MVAI103 TN/TC"], "terms": [{"conceptId": "C191004", "definition": "Modified Van Assche Index original result for MVAI103-Increased signal intensity.", "preferredTerm": "Modified Van Assche Index MVAI103 Original Result - Increased Signal Intensity", "submissionValue": "Increased signal intensity", "synonyms": ["MVAI103-Increased signal intensity"]}, {"conceptId": "C191002", "definition": "Modified Van Assche Index original result for MVAI103-Normal.", "preferredTerm": "Modified Van Assche Index MVAI103 Original Result - Normal", "submissionValue": "Normal", "synonyms": ["MVAI103-Normal"]}, {"conceptId": "C191003", "definition": "Modified Van Assche Index original result for MVAI103-Thickened.", "preferredTerm": "Modified Van Assche Index MVAI103 Original Result - Thickened", "submissionValue": "Thickened", "synonyms": ["MVAI103-Thickened"]}]}