{"_links": {"parentPackage": {"href": "/mdr/ct/packages/sdtmct-2022-12-16", "title": "SDTM Controlled Terminology Package 52 Effective 2022-12-16", "type": "Terminology"}, "rootItem": {"href": "/mdr/root/ct/sdtmct/codelists/C190865", "title": "Version-agnostic anchor resource for codelist C190865", "type": "Root Value Domain"}, "self": {"href": "/mdr/ct/packages/sdtmct-2022-12-16/codelists/C190865", "title": "CDISC SDTM Pediatric Findings About Test Code Terminology", "type": "Code List"}}, "conceptId": "C190865", "definition": "Terminology relevant to the test codes that describe findings about a pediatric event or intervention.", "extensible": "true", "name": "Pediatric Findings About Test Code", "preferredTerm": "CDISC SDTM Pediatric Findings About Test Code Terminology", "submissionValue": "PDFATSCD", "synonyms": ["Pediatric Findings About Test Code"], "terms": [{"conceptId": "C184466", "definition": "A determination of the total cholesterol in a nutritional product or meal, or a portion thereof.", "preferredTerm": "Dietary Cholesterol Measurement", "submissionValue": "DCHOLEST", "synonyms": ["Dietary Cholesterol"]}, {"conceptId": "C172460", "definition": "A determination of the total fat in a nutritional product or meal, or a portion thereof.", "preferredTerm": "Total Dietary Fat Measurement", "submissionValue": "DFATT", "synonyms": ["Dietary Fat, Total"]}, {"conceptId": "C127786", "definition": "An indication as to whether something has happened, such as an event or incident.", "preferredTerm": "Occurrence Indicator", "submissionValue": "OCCUR", "synonyms": ["Occurrence Indicator"]}]}