{"_links": {"parentPackage": {"href": "/mdr/ct/packages/sdtmct-2022-12-16", "title": "SDTM Controlled Terminology Package 52 Effective 2022-12-16", "type": "Terminology"}, "rootItem": {"href": "/mdr/root/ct/sdtmct/codelists/C190864", "title": "Version-agnostic anchor resource for codelist C190864", "type": "Root Value Domain"}, "self": {"href": "/mdr/ct/packages/sdtmct-2022-12-16/codelists/C190864", "title": "CDISC SDTM Pediatric Findings About Test Name Terminology", "type": "Code List"}}, "conceptId": "C190864", "definition": "Terminology relevant to the test names that describe findings about a pediatric event or intervention.", "extensible": "true", "name": "Pediatric Findings About Test Name", "preferredTerm": "CDISC SDTM Pediatric Findings About Test Name Terminology", "submissionValue": "PDFATS", "synonyms": ["Pediatric Findings About Test Name"], "terms": [{"conceptId": "C184466", "definition": "A determination of the total cholesterol in a nutritional product or meal, or a portion thereof.", "preferredTerm": "Dietary Cholesterol Measurement", "submissionValue": "Dietary Cholesterol", "synonyms": ["Dietary Cholesterol"]}, {"conceptId": "C172460", "definition": "A determination of the total fat in a nutritional product or meal, or a portion thereof.", "preferredTerm": "Total Dietary Fat Measurement", "submissionValue": "Dietary Fat, Total", "synonyms": ["Dietary Fat, Total"]}, {"conceptId": "C127786", "definition": "An indication as to whether something has happened, such as an event or incident.", "preferredTerm": "Occurrence Indicator", "submissionValue": "Occurrence Indicator", "synonyms": ["Occurrence Indicator"]}]}