{"_links": {"parentPackage": {"href": "/mdr/ct/packages/sdtmct-2022-12-16", "title": "SDTM Controlled Terminology Package 52 Effective 2022-12-16", "type": "Terminology"}, "rootItem": {"href": "/mdr/root/ct/sdtmct/codelists/C190885", "title": "Version-agnostic anchor resource for codelist C190885", "type": "Root Value Domain"}, "self": {"href": "/mdr/ct/packages/sdtmct-2022-12-16/codelists/C190885", "title": "CDISC Clinical Classification Harvey-Bradshaw Index HBI0101 Original Response Terminology", "type": "Code List"}}, "conceptId": "C190885", "definition": "Harvey-Bradshaw Index original result for HBI0101 test and test code.", "extensible": "false", "name": "Harvey-Bradshaw Index Clinical Classification ORRES for HBI0101 TN/TC", "preferredTerm": "CDISC Clinical Classification Harvey-Bradshaw Index HBI0101 Original Response Terminology", "submissionValue": "HBI0101OR", "synonyms": ["Harvey-Bradshaw Index Clinical Classification ORRES for HBI0101 TN/TC"], "terms": [{"conceptId": "C190960", "definition": "Harvey-Bradshaw Index original result for HBI0101-Poor.", "preferredTerm": "Harvey-Bradshaw Index HBI0101 Original Result - Poor", "submissionValue": "poor", "synonyms": ["HBI0101-poor"]}, {"conceptId": "C190959", "definition": "Harvey-Bradshaw Index original result for HBI0101-Slightly below par.", "preferredTerm": "Harvey-Bradshaw Index HBI0101 Original Result - Slightly Below Par", "submissionValue": "slightly below par", "synonyms": ["HBI0101-slightly below par"]}, {"conceptId": "C190962", "definition": "Harvey-Bradshaw Index original result for HBI0101-Terrible.", "preferredTerm": "Harvey-Bradshaw Index HBI0101 Original Result - Terrible", "submissionValue": "terrible", "synonyms": ["HBI0101-terrible"]}, {"conceptId": "C190961", "definition": "Harvey-Bradshaw Index original result for HBI0101-Very poor.", "preferredTerm": "Harvey-Bradshaw Index HBI0101 Original Result - Very Poor", "submissionValue": "very poor", "synonyms": ["HBI0101-very poor"]}, {"conceptId": "C190958", "definition": "Harvey-Bradshaw Index original result for HBI0101-Very well.", "preferredTerm": "Harvey-Bradshaw Index HBI0101 Original Result - Very Well", "submissionValue": "very well", "synonyms": ["HBI0101-very well"]}]}