{"_links": {"parentPackage": {"href": "/mdr/ct/packages/sdtmct-2022-12-16", "title": "SDTM Controlled Terminology Package 52 Effective 2022-12-16", "type": "Terminology"}, "rootItem": {"href": "/mdr/root/ct/sdtmct/codelists/C190896", "title": "Version-agnostic anchor resource for codelist C190896", "type": "Root Value Domain"}, "self": {"href": "/mdr/ct/packages/sdtmct-2022-12-16/codelists/C190896", "title": "CDISC Clinical Classification Modified Van Assche Index MVAI102 Standardized Character Response Terminology", "type": "Code List"}}, "conceptId": "C190896", "definition": "Modified Van Assche Index standardized character result for MVAI102 test and test code.", "extensible": "false", "name": "Modified Van Assche Index Clinical Classification STRESC for MVAI102 TN/TC", "preferredTerm": "CDISC Clinical Classification Modified Van Assche Index MVAI102 Standardized Character Response Terminology", "submissionValue": "MVAI102STR", "synonyms": ["Modified Van Assche Index Clinical Classification STRESC for MVAI102 TN/TC"], "terms": [{"conceptId": "C190999", "definition": "Modified Van Assche Index standardized character result for MVAI102-Absent.", "preferredTerm": "Modified Van Assche Index MVAI102 Standardized Character Result 0", "submissionValue": "0", "synonyms": ["MVAI102-0"]}, {"conceptId": "C191000", "definition": "Modified Van Assche Index standardized character result for MVAI102-Mild.", "preferredTerm": "Modified Van Assche Index MVAI102 Standardized Character Result 1", "submissionValue": "1", "synonyms": ["MVAI102-1"]}, {"conceptId": "C191001", "definition": "Modified Van Assche Index standardized character result for MVAI102-Pronounced.", "preferredTerm": "Modified Van Assche Index MVAI102 Standardized Character Result 2", "submissionValue": "2", "synonyms": ["MVAI102-2"]}]}