{"_links": {"parentPackage": {"href": "/mdr/ct/packages/sdtmct-2022-12-16", "title": "SDTM Controlled Terminology Package 52 Effective 2022-12-16", "type": "Terminology"}, "rootItem": {"href": "/mdr/root/ct/sdtmct/codelists/C190937", "title": "Version-agnostic anchor resource for codelist C190937", "type": "Root Value Domain"}, "self": {"href": "/mdr/ct/packages/sdtmct-2022-12-16/codelists/C190937", "title": "CDISC Clinical Classification Psoriasis Area and Severity Index Bozek Version Test Name Terminology", "type": "Code List"}}, "conceptId": "C190937", "definition": "Psoriasis Area and Severity Index Version Bozek test name.", "extensible": "false", "name": "Psoriasis Area and Severity Index Version Bozek Clinical Classification Test Name", "preferredTerm": "CDISC Clinical Classification Psoriasis Area and Severity Index Bozek Version Test Name Terminology", "submissionValue": "PASI05TN", "synonyms": ["Psoriasis Area and Severity Index Version Bozek Clinical Classification Test Name"], "terms": [{"conceptId": "C191127", "definition": "Psoriasis Area and Severity Index Version Bozek - Head: Area score.", "preferredTerm": "PASI Bozek Version - Head: Area Score", "submissionValue": "PASI05-Head: Area Score", "synonyms": ["PASI05-Head: Area Score"]}, {"conceptId": "C191126", "definition": "Psoriasis Area and Severity Index Version Bozek - Head: Desquamation/Scaling symptom score.", "preferredTerm": "PASI Bozek Version - Head: Desquamation/Scaling", "submissionValue": "PASI05-Head: Desquamation/Scaling", "synonyms": ["PASI05-Head: Desquamation/Scaling"]}, {"conceptId": "C191124", "definition": "Psoriasis Area and Severity Index Version Bozek - Head: Erythema/Redness symptom score.", "preferredTerm": "PASI Bozek Version - Head: Erythema/Redness", "submissionValue": "PASI05-Head: Erythema/Redness", "synonyms": ["PASI05-Head: Erythema/Redness"]}, {"conceptId": "C191140", "definition": "Psoriasis Area and Severity Index Version Bozek - Head: Sum of symptom scores.", "preferredTerm": "PASI Bozek Version - Head: Sum of Symptom Scores", "submissionValue": "PASI05-Head: Sum of Symptom Scores", "synonyms": ["PASI05-Head: Sum of Symptom Scores"]}, {"conceptId": "C191142", "definition": "Psoriasis Area and Severity Index Version Bozek - Head: Sum x area x 0.1.", "preferredTerm": "PASI Bozek Version - Head: Sum X Area X 0.1", "submissionValue": "PASI05-Head: Sum X Area X 0.1", "synonyms": ["PASI05-Head: Sum X Area X 0.1"]}, {"conceptId": "C191141", "definition": "Psoriasis Area and Severity Index Version Bozek - Head: Sum of symptom scores x area score.", "preferredTerm": "PASI Bozek Version - Head: Sum X Area", "submissionValue": "PASI05-Head: Sum X Area", "synonyms": ["PASI05-Head: Sum X Area"]}, {"conceptId": "C191125", "definition": "Psoriasis Area and Severity Index Version Bozek - Head: Thickness/Induration symptom score.", "preferredTerm": "PASI Bozek Version - Head: Thickness/Induration", "submissionValue": "PASI05-Head: Thickness/Induration", "synonyms": ["PASI05-Head: Thickness/Induration"]}, {"conceptId": "C191139", "definition": "Psoriasis Area and Severity Index Version Bozek - Lower Extremities: Area score.", "preferredTerm": "PASI Bozek Version - Lower Extremities: Area Score", "submissionValue": "PASI05-Low Extrem: Area Score", "synonyms": ["PASI05-Low Extrem: Area Score"]}, {"conceptId": "C191138", "definition": "Psoriasis Area and Severity Index Version Bozek - Lower Extremities: Desquamation/Scaling symptom score.", "preferredTerm": "PASI Bozek Version - Lower Extremities: Desquamation/Scaling", "submissionValue": "PASI05-Low Extrem: Desquamation/Scaling", "synonyms": ["PASI05-Low Extrem: Desquamation/Scaling"]}, {"conceptId": "C191136", "definition": "Psoriasis Area and Severity Index Version Bozek - Lower Extremities: Erythema/Redness symptom score.", "preferredTerm": "PASI Bozek Version - Lower Extremities: Erythema/Redness", "submissionValue": "PASI05-Low Extrem: Erythema/Redness", "synonyms": ["PASI05-Low Extrem: Erythema/Redness"]}, {"conceptId": "C191149", "definition": "Psoriasis Area and Severity Index Version Bozek - Lower Extremities: Sum of symptom scores.", "preferredTerm": "PASI Bozek Version - Lower Extremities: Sum of Symptom Scores", "submissionValue": "PASI05-Low Extrem: Sum of Symptom Scores", "synonyms": ["PASI05-Low Extrem: Sum of Symptom Scores"]}, {"conceptId": "C191151", "definition": "Psoriasis Area and Severity Index Version Bozek - Lower Extremities: Sum x area x 0.4.", "preferredTerm": "PASI Bozek Version - Lower Extremities: Sum X Area X 0.4", "submissionValue": "PASI05-Low Extrem: Sum X Area X 0.4", "synonyms": ["PASI05-Low Extrem: Sum X Area X 0.4"]}, {"conceptId": "C191150", "definition": "Psoriasis Area and Severity Index Version Bozek - Lower Extremities: Sum of symptom scores x area score.", "preferredTerm": "PASI Bozek Version - Lower Extremities: Sum X Area", "submissionValue": "PASI05-Low Extrem: Sum X Area", "synonyms": ["PASI05-Low Extrem: Sum X Area"]}, {"conceptId": "C191137", "definition": "Psoriasis Area and Severity Index Version Bozek - Lower Extremities: Thickness/Induration symptom score.", "preferredTerm": "PASI Bozek Version - Lower Extremities: Thickness/Induration", "submissionValue": "PASI05-Low Extrem: Thickness/Induration", "synonyms": ["PASI05-Low Extrem: Thickness/Induration"]}, {"conceptId": "C191152", "definition": "Psoriasis Area and Severity Index Version Bozek - Total sum.", "preferredTerm": "PASI Bozek Version - Total Sum", "submissionValue": "PASI05-Total Sum", "synonyms": ["PASI05-Total Sum"]}, {"conceptId": "C191135", "definition": "Psoriasis Area and Severity Index Version Bozek - Trunk: Area score.", "preferredTerm": "PASI Bozek Version - Trunk: Area Score", "submissionValue": "PASI05-Trunk: Area Score", "synonyms": ["PASI05-Trunk: Area Score"]}, {"conceptId": "C191134", "definition": "Psoriasis Area and Severity Index Version Bozek - Trunk: Desquamation/Scaling symptom score.", "preferredTerm": "PASI Bozek Version - Trunk: Desquamation/Scaling", "submissionValue": "PASI05-Trunk: Desquamation/Scaling", "synonyms": ["PASI05-Trunk: Desquamation/Scaling"]}, {"conceptId": "C191132", "definition": "Psoriasis Area and Severity Index Version Bozek - Trunk: Erythema/Redness symptom score.", "preferredTerm": "PASI Bozek Version - Trunk: Erythema/Redness", "submissionValue": "PASI05-Trunk: Erythema/Redness", "synonyms": ["PASI05-Trunk: Erythema/Redness"]}, {"conceptId": "C191146", "definition": "Psoriasis Area and Severity Index Version Bozek - Trunk: Sum of symptom scores.", "preferredTerm": "PASI Bozek Version - Trunk: Sum of Symptom Scores", "submissionValue": "PASI05-Trunk: Sum of Symptom Scores", "synonyms": ["PASI05-Trunk: Sum of Symptom Scores"]}, {"conceptId": "C191148", "definition": "Psoriasis Area and Severity Index Version Bozek - Trunk: Sum x area x 0.3.", "preferredTerm": "PASI Bozek Version - Trunk: Sum X Area X 0.3", "submissionValue": "PASI05-Trunk: Sum X Area X 0.3", "synonyms": ["PASI05-Trunk: Sum X Area X 0.3"]}, {"conceptId": "C191147", "definition": "Psoriasis Area and Severity Index Version Bozek - Trunk: Sum of symptom scores x area score.", "preferredTerm": "PASI Bozek Version - Trunk: Sum X Area", "submissionValue": "PASI05-Trunk: Sum X Area", "synonyms": ["PASI05-Trunk: Sum X Area"]}, {"conceptId": "C191133", "definition": "Psoriasis Area and Severity Index Version Bozek - Trunk: Thickness/Induration symptom score.", "preferredTerm": "PASI Bozek Version - Trunk: Thickness/Induration", "submissionValue": "PASI05-Trunk: Thickness/Induration", "synonyms": ["PASI05-Trunk: Thickness/Induration"]}, {"conceptId": "C191131", "definition": "Psoriasis Area and Severity Index Version Bozek - Upper Extremities: Area score.", "preferredTerm": "PASI Bozek Version - Upper Extremities: Area Score", "submissionValue": "PASI05-Up Extrem: Area Score", "synonyms": ["PASI05-Up Extrem: Area Score"]}, {"conceptId": "C191130", "definition": "Psoriasis Area and Severity Index Version Bozek - Upper Extremities: Desquamation/Scaling symptom score.", "preferredTerm": "PASI Bozek Version - Upper Extremities: Desquamation/Scaling", "submissionValue": "PASI05-Up Extrem: Desquamation/Scaling", "synonyms": ["PASI05-Up Extrem: Desquamation/Scaling"]}, {"conceptId": "C191128", "definition": "Psoriasis Area and Severity Index Version Bozek - Upper Extremities: Erythema/Redness symptom score.", "preferredTerm": "PASI Bozek Version - Upper Extremities: Erythema/Redness", "submissionValue": "PASI05-Up Extrem: Erythema/Redness", "synonyms": ["PASI05-Up Extrem: Erythema/Redness"]}, {"conceptId": "C191143", "definition": "Psoriasis Area and Severity Index Version Bozek - Upper Extremities: Sum of symptom scores.", "preferredTerm": "PASI Bozek Version - Upper Extremities: Sum of Symptom Scores", "submissionValue": "PASI05-Up Extrem: Sum of Symptom Scores", "synonyms": ["PASI05-Up Extrem: Sum of Symptom Scores"]}, {"conceptId": "C191145", "definition": "Psoriasis Area and Severity Index Version Bozek - Upper Extremities: Sum x area x 0.2.", "preferredTerm": "PASI Bozek Version - Upper Extremities: Sum X Area X 0.2", "submissionValue": "PASI05-Up Extrem: Sum X Area X 0.2", "synonyms": ["PASI05-Up Extrem: Sum X Area X 0.2"]}, {"conceptId": "C191144", "definition": "Psoriasis Area and Severity Index Version Bozek - Upper Extremities: Sum of symptom scores x area score.", "preferredTerm": "PASI Bozek Version - Upper Extremities: Sum X Area", "submissionValue": "PASI05-Up Extrem: Sum X Area", "synonyms": ["PASI05-Up Extrem: Sum X Area"]}, {"conceptId": "C191129", "definition": "Psoriasis Area and Severity Index Version Bozek - Upper Extremities: Thickness/Induration symptom score.", "preferredTerm": "PASI Bozek Version - Upper Extremities: Thickness/Induration", "submissionValue": "PASI05-Up Extrem: Thickness/Induration", "synonyms": ["PASI05-Up Extrem: Thickness/Induration"]}]}