{"_links": {"parentPackage": {"href": "/mdr/ct/packages/sdtmct-2022-12-16", "title": "SDTM Controlled Terminology Package 52 Effective 2022-12-16", "type": "Terminology"}, "rootItem": {"href": "/mdr/root/ct/sdtmct/codelists/C190887", "title": "Version-agnostic anchor resource for codelist C190887", "type": "Root Value Domain"}, "self": {"href": "/mdr/ct/packages/sdtmct-2022-12-16/codelists/C190887", "title": "CDISC Clinical Classification Harvey-Bradshaw Index HBI0102 Original Response Terminology", "type": "Code List"}}, "conceptId": "C190887", "definition": "Harvey-Bradshaw Index original result for HBI0102 test and test code.", "extensible": "false", "name": "Harvey-Bradshaw Index Clinical Classification ORRES for HBI0102 TN/TC", "preferredTerm": "CDISC Clinical Classification Harvey-Bradshaw Index HBI0102 Original Response Terminology", "submissionValue": "HBI0102OR", "synonyms": ["Harvey-Bradshaw Index Clinical Classification ORRES for HBI0102 TN/TC"], "terms": [{"conceptId": "C190969", "definition": "Harvey-Bradshaw Index original result for HBI0102-Mild.", "preferredTerm": "Harvey-Bradshaw Index HBI0102 Original Result - Mild", "submissionValue": "mild", "synonyms": ["HBI0102-mild"]}, {"conceptId": "C190970", "definition": "Harvey-Bradshaw Index original result for HBI0102-Moderate.", "preferredTerm": "Harvey-Bradshaw Index HBI0102 Original Result - Moderate", "submissionValue": "moderate", "synonyms": ["HBI0102-moderate"]}, {"conceptId": "C190968", "definition": "Harvey-Bradshaw Index original result for HBI0102-None.", "preferredTerm": "Harvey-Bradshaw Index HBI0102 Original Result - None", "submissionValue": "none", "synonyms": ["HBI0102-none"]}, {"conceptId": "C190971", "definition": "Harvey-Bradshaw Index original result for HBI0102-Severe.", "preferredTerm": "Harvey-Bradshaw Index HBI0102 Original Result - Severe", "submissionValue": "severe", "synonyms": ["HBI0102-severe"]}]}