{"_links": {"parentPackage": {"href": "/mdr/ct/packages/sdtmct-2022-12-16", "title": "SDTM Controlled Terminology Package 52 Effective 2022-12-16", "type": "Terminology"}, "priorVersion": {"href": "/mdr/ct/packages/sdtmct-2022-09-30/codelists/C66735", "title": "CDISC SDTM Trial Blinding Schema Terminology", "type": "Code List"}, "rootItem": {"href": "/mdr/root/ct/sdtmct/codelists/C66735", "title": "Version-agnostic anchor resource for codelist C66735", "type": "Root Value Domain"}, "self": {"href": "/mdr/ct/packages/sdtmct-2022-12-16/codelists/C66735", "title": "CDISC SDTM Trial Blinding Schema Terminology", "type": "Code List"}}, "conceptId": "C66735", "definition": "A terminology codelist relevant to the type of blinding for the trial.", "extensible": "true", "name": "Trial Blinding Schema Response", "preferredTerm": "CDISC SDTM Trial Blinding Schema Terminology", "submissionValue": "TBLIND", "synonyms": ["Trial Blinding Schema Response"], "terms": [{"conceptId": "C15228", "definition": "A study in which neither the subject nor the study personnel interacting with the subject or data during the study knows what intervention a subject is receiving.", "preferredTerm": "Double Blind Study", "submissionValue": "DOUBLE BLIND", "synonyms": ["Double Masked", "Double-Masked"]}, {"conceptId": "C187674", "definition": "A study in which the study personnel who measure, record, or assess the subject do not know which intervention the subject is receiving or, in the context of observational studies, do not know the external factors to which a subject has been exposed.", "preferredTerm": "Observer Blind Study", "submissionValue": "OBSERVER BLIND"}, {"conceptId": "C156592", "definition": "A study in which the therapeutic treatment is open label but the dosing information of the investigational medicinal product (IMP) is double-blinded.", "preferredTerm": "Open Label for Treatment And Double Blind to Dose", "submissionValue": "OPEN LABEL TO TREATMENT AND DOUBLE BLIND TO IMP DOSE"}, {"conceptId": "C49659", "definition": "A study in which subjects and study personnel know which intervention each subject is receiving.", "preferredTerm": "Open Label Study", "submissionValue": "OPEN LABEL"}, {"conceptId": "C28233", "definition": "A study in which one party, either the subject or study personnel, does not know which intervention is administered to the subject.", "preferredTerm": "Single Blind Study", "submissionValue": "SINGLE BLIND", "synonyms": ["Single Masked", "Single-Masked"]}]}