{"_links": {"parentPackage": {"href": "/mdr/ct/packages/sdtmct-2022-12-16", "title": "SDTM Controlled Terminology Package 52 Effective 2022-12-16", "type": "Terminology"}, "priorVersion": {"href": "/mdr/ct/packages/sdtmct-2022-09-30/codelists/C78735", "title": "CDISC SDTM Evaluator Terminology", "type": "Code List"}, "rootItem": {"href": "/mdr/root/ct/sdtmct/codelists/C78735", "title": "Version-agnostic anchor resource for codelist C78735", "type": "Root Value Domain"}, "self": {"href": "/mdr/ct/packages/sdtmct-2022-12-16/codelists/C78735", "title": "CDISC SDTM Evaluator Terminology", "type": "Code List"}}, "conceptId": "C78735", "definition": "The role that the individual or entity plays with respect to a specific situation or person.", "extensible": "true", "name": "Evaluator", "preferredTerm": "CDISC SDTM Evaluator Terminology", "submissionValue": "EVAL", "synonyms": ["Evaluator"], "terms": [{"conceptId": "C78726", "definition": "An external committee whose purpose is to evaluate study data and decide whether a study endpoint or other criterion has been met. (NCI)", "preferredTerm": "Adjudication Committee", "submissionValue": "ADJUDICATION COMMITTEE"}, {"conceptId": "C96561", "definition": "An individual that presides over and arbitrates between individuals or organizations.", "preferredTerm": "Adjudicator", "submissionValue": "ADJUDICATOR"}, {"conceptId": "C125951", "definition": "A physician who specializes in the diagnosis and treatment of heart disorders.", "preferredTerm": "Cardiologist", "submissionValue": "CARDIOLOGIST"}, {"conceptId": "C17445", "definition": "The primary person in charge of the care of a patient, usually a family member or a designated health care professional. (NCI)", "preferredTerm": "Caregiver", "submissionValue": "CAREGIVER", "synonyms": ["Caregiver", "Caretaker"]}, {"conceptId": "C189311", "definition": "A person authorized through certification to perform an evaluation or assessment.", "preferredTerm": "Certified Assessor", "submissionValue": "CERTIFIED ASSESSOR"}, {"conceptId": "C150886", "definition": "A biological or non-biological first generation offspring, including but not limited to biological children (including those born outside of marriage), adopted children, step children, and foster children. (NCI)", "preferredTerm": "Child Relation", "submissionValue": "CHILD"}, {"conceptId": "C142332", "definition": "A physician specializing in medical diagnosis based on laboratory analysis and the macroscopic and the microscopic changes to tissues and organs caused by disease.", "preferredTerm": "Clinical Pathologist", "submissionValue": "CLINICAL PATHOLOGIST"}, {"conceptId": "C25465", "definition": "A person who is employed by a study sponsor or by a contract research organization (CRO), operates independently from the clinical study site and functions as a monitor, and/or auditor, and/or a project director within a particular trial or institution. (NCI)", "preferredTerm": "Clinical Research Associate", "submissionValue": "CLINICAL RESEARCH ASSOCIATE", "synonyms": ["Research Associate"]}, {"conceptId": "C51811", "definition": "A person to whom a clinical investigator delegates routine administrative requirements of a protocol. The duties and responsibilities of a clinical research coordinator may vary across different infrastructures. Generally, the coordinator manages the subject's clinical trial participation and provides a vital linkage between the subject, the investigator, and the sponsor. (NCI)", "preferredTerm": "Clinical Coordinator", "submissionValue": "CLINICAL RESEARCH COORDINATOR", "synonyms": ["CRC"]}, {"conceptId": "C70793", "definition": "An individual, company, institution, or organization that takes responsibility for the initiation, management, and/or financing of a clinical study. [After ICH E6, WHO, 21 CFR 50.3 (e), and after IDMP]", "preferredTerm": "Clinical Study Sponsor", "submissionValue": "CLINICAL STUDY SPONSOR", "synonyms": ["Clinical Study Sponsor", "Sponsor", "Study Sponsor"]}, {"conceptId": "C17816", "definition": "A doctor who specializes in diagnosis and treatment of skin conditions.", "preferredTerm": "Dermatologist", "submissionValue": "DERMATOLOGIST"}, {"conceptId": "C147461", "definition": "A pediatrician who specializes in diagnosing and treating developmental and behavioral disorders in children.", "preferredTerm": "Developmental Behavioral Pediatrician", "submissionValue": "DEVELOPMENTAL BEHAVIORAL PEDIATRICIAN"}, {"conceptId": "C147462", "definition": "A psychologist who specializes in diagnosing and treating emotional and behavioral problems associated with developmental delay or disability.", "preferredTerm": "Developmental Psychologist", "submissionValue": "DEVELOPMENTAL PSYCHOLOGIST"}, {"conceptId": "C53262", "definition": "Person declares that a domestic partnership relationship exists. (HL7)", "preferredTerm": "Domestic Partnership", "submissionValue": "DOMESTIC PARTNER", "synonyms": ["Domestic Partner"]}, {"conceptId": "C17817", "definition": "A physician who specializes in diagnosing and treating conditions affecting the endocrine system.", "preferredTerm": "Endocrinologist", "submissionValue": "ENDOCRINOLOGIST"}, {"conceptId": "C41256", "definition": "Any of the individuals who are descended from a common progenitor, related by marriage or other legal tie.", "preferredTerm": "Family Member", "submissionValue": "FAMILY MEMBER", "synonyms": ["Family Member"]}, {"conceptId": "C142333", "definition": "A physician specializing in the diagnosis of both the cause of death and the manner of death of another human being.", "preferredTerm": "Forensic Pathologist", "submissionValue": "FORENSIC PATHOLOGIST"}, {"conceptId": "C72884", "definition": "A person whom an individual knows, likes, and trusts. (NCI)", "preferredTerm": "Friend", "submissionValue": "FRIEND"}, {"conceptId": "C51828", "definition": "An individual who is authorized under applicable State or local law to consent on behalf of a child or incapable person to general medical care including participation in clinical research. (NCI)", "preferredTerm": "Guardian", "submissionValue": "GUARDIAN"}, {"conceptId": "C17720", "definition": "A physician who specializes in women's healthcare, including diagnosing and treating diseases and disorders of the female reproductive organs.", "preferredTerm": "Gynecologist", "submissionValue": "GYNECOLOGIST"}, {"conceptId": "C53287", "definition": "A person qualified to be engaged in activity directed at preservation of mental and physical health by diseases prevention and treatment as a source of livelihood. (NCI)", "preferredTerm": "Health Care Professional", "submissionValue": "HEALTH CARE PROFESSIONAL"}, {"conceptId": "C17831", "definition": "A doctor who specializes in diagnosing and treating diseases and disorders of the blood and blood-forming organs. (NCI)", "preferredTerm": "Hematologist", "submissionValue": "HEMATOLOGIST"}, {"conceptId": "C78720", "definition": "An individual qualified to perform an evaluation who is masked from a subject's data in order to minimize bias or maximize consistency and quality. (NCI)", "preferredTerm": "Independent Rater", "submissionValue": "INDEPENDENT ASSESSOR"}, {"conceptId": "C17832", "definition": "A physician who specializes in internal medicine.", "preferredTerm": "Internist", "submissionValue": "INTERNIST"}, {"conceptId": "C63759", "definition": "The person who manages an interview and asks the questions.", "preferredTerm": "Interviewer", "submissionValue": "INTERVIEWER"}, {"conceptId": "C25936", "definition": "A person responsible for the conduct of the clinical trial at a trial site. If a trial is conducted by a team of individuals at the trial site, the investigator is the responsible leader of the team and may be called the principal investigator.", "preferredTerm": "Investigator", "submissionValue": "INVESTIGATOR"}, {"conceptId": "C132303", "definition": "A health care professional trained in the visualization of structures too small to be seen by the naked eye, using various microscopic techniques.", "preferredTerm": "Microscopist", "submissionValue": "MICROSCOPIST"}, {"conceptId": "C191271", "definition": "A health professional educated in the discipline of midwifery, including care of women during pregnancy, child birth, and post-partum care.", "preferredTerm": "Midwife", "submissionValue": "MIDWIFE"}, {"conceptId": "C17721", "definition": "A physician who specializes in diagnosing and treating diseases and disorders of the nervous system.", "preferredTerm": "Neurologist", "submissionValue": "NEUROLOGIST"}, {"conceptId": "C93061", "definition": "A physician trained in oncology who specializes in tumors of the central nervous system.", "preferredTerm": "Neuro-oncologist", "submissionValue": "NEUROONCOLOGIST"}, {"conceptId": "C93058", "definition": "A radiologist who specializes in diagnosing and treating conditions affecting the nervous system.", "preferredTerm": "Neuroradiologist", "submissionValue": "NEURORADIOLOGIST"}, {"conceptId": "C134833", "definition": "Any individual other than a health care professional.", "preferredTerm": "Non-Healthcare Professional", "submissionValue": "NON-HEALTH CARE PROFESSIONAL"}, {"conceptId": "C189312", "definition": "A type of radiologist who specializes in procedures using radioactive materials to diagnose and/or treat patients.", "preferredTerm": "Nuclear Medicine Physician", "submissionValue": "NUCLEAR MEDICINE PHYSICIAN"}, {"conceptId": "C191272", "definition": "A physician who specializes in the treatment of women as it relates to pregnancy, child birth, and post-partum care.", "preferredTerm": "Obstetrician", "submissionValue": "OBSTETRICIAN"}, {"conceptId": "C17821", "definition": "A physician who specializes in diagnosing and treating cancer. (NCI)", "preferredTerm": "Oncologist", "submissionValue": "ONCOLOGIST"}, {"conceptId": "C17822", "definition": "A physician with a Doctor of Medicine or Doctor of Osteopathic Medicine degree (or analogous) who specializes in diagnosing and treating eye disorders, including more complex disorders that require surgery. (NCI)", "preferredTerm": "Ophthalmologist", "submissionValue": "OPHTHALMOLOGIST"}, {"conceptId": "C132424", "definition": "A physician with a Doctor of Optometry degree (or analogous) who specializes in the diagnosis and treatment of eye disorders.", "preferredTerm": "Optometrist", "submissionValue": "OPTOMETRIST"}, {"conceptId": "C17823", "definition": "A doctor who specializes in treating diseases of the ear, nose, and throat. (NCI)", "preferredTerm": "Otolaryngologist", "submissionValue": "OTOLARYNGOLOGIST", "synonyms": ["Ear, Nose, and Throat Doctor", "ENT Doctor", "ENT Specialist", "Otorhinolaryngologist"]}, {"conceptId": "C42709", "definition": "A mother or a father.", "preferredTerm": "Parent", "submissionValue": "PARENT"}, {"conceptId": "C17723", "definition": "A physician who specializes in the science of pathology.", "preferredTerm": "Pathologist", "submissionValue": "PATHOLOGIST"}, {"conceptId": "C191273", "definition": "A pediatrician who specializes in the diagnosis and treatment of heart disorders in children.", "preferredTerm": "Pediatric Cardiologist", "submissionValue": "PEDIATRIC CARDIOLOGIST"}, {"conceptId": "C147463", "definition": "A pediatrician who specializes in the diagnosis and treatment of nervous system disorders in children.", "preferredTerm": "Pediatric Neurologist", "submissionValue": "PEDIATRIC NEUROLOGIST"}, {"conceptId": "C189313", "definition": "A scientist who studies and/or works in the field of pharmacokinetics.", "preferredTerm": "Pharmacokineticist", "submissionValue": "PHARMACOKINETICIST"}, {"conceptId": "C53422", "definition": "A healthcare professional trained and certified to apply knowledge of the concepts, principles, and practices of physical therapy for the treatment or prevention of physical disability or disease.", "preferredTerm": "Physical Therapist", "submissionValue": "PHYSIOTHERAPIST", "synonyms": ["Physical Therapist"]}, {"conceptId": "C19924", "definition": "A person who has the primary responsibility for the conduct of a clinical study and study-related personnel at a study site. While a single-center study would not include a coordinating investigator, the investigator at the site would fulfill the same responsibilities as a principal investigator.", "preferredTerm": "Principal Investigator", "submissionValue": "PRINCIPAL INVESTIGATOR"}, {"conceptId": "C119264", "definition": "A type of directive that gives a person the authority to make decisions for or provide responses on behalf of another individual.", "preferredTerm": "Proxy", "submissionValue": "PROXY"}, {"conceptId": "C17824", "definition": "A physician who specializes in the diagnostic and/or therapeutic uses of radiation. (NCI)", "preferredTerm": "Radiologist", "submissionValue": "RADIOLOGIST"}, {"conceptId": "C132304", "definition": "An individual qualified to perform an assessment.", "preferredTerm": "Rater", "submissionValue": "RATER"}, {"conceptId": "C28747", "definition": "An individual who takes non-quantifiable data and provides quantifiable assessments for that data.", "preferredTerm": "Reader", "submissionValue": "READER"}, {"conceptId": "C25204", "definition": "A person's brother or sister.", "preferredTerm": "Sibling", "submissionValue": "SIBLING"}, {"conceptId": "C119265", "definition": "A gender-neutral term for a person's partner in an intimate or romantic relationship without disclosing or presuming marital status or sexual orientation.", "preferredTerm": "Significant Other", "submissionValue": "SIGNIFICANT OTHER"}, {"conceptId": "C191274", "definition": "A health professional educated in the discipline of ultrasonography.", "preferredTerm": "Sonographer", "submissionValue": "SONOGRAPHER"}, {"conceptId": "C62649", "definition": "A person's partner in marriage. (NCI)", "preferredTerm": "Spouse", "submissionValue": "SPOUSE", "synonyms": ["Spouse"]}, {"conceptId": "C41189", "definition": "An individual who is observed, analyzed, examined, investigated, experimented upon, or/and treated in the course of a particular study.", "preferredTerm": "Study Subject", "submissionValue": "STUDY SUBJECT"}, {"conceptId": "C54622", "definition": "Any member of the clinical trial team designated and supervised by the investigator at a trial site to perform critical trial-related procedures and/or to make important trial-related decisions (e.g., associates, residents, research fellows). (ICH)", "preferredTerm": "Subinvestigator", "submissionValue": "SUBINVESTIGATOR"}, {"conceptId": "C17826", "definition": "A doctor who specializes in diseases of the urinary organs in females and the genitourinary organs in males.", "preferredTerm": "Urologist", "submissionValue": "UROLOGIST"}, {"conceptId": "C68608", "definition": "A person or agency that promotes or exchanges goods or services for money. (NCI)", "preferredTerm": "Vendor", "submissionValue": "VENDOR"}]}