{"_links": {"parentPackage": {"href": "/mdr/ct/packages/sdtmct-2022-12-16", "title": "SDTM Controlled Terminology Package 52 Effective 2022-12-16", "type": "Terminology"}, "priorVersion": {"href": "/mdr/ct/packages/sdtmct-2022-09-30/codelists/C85494", "title": "CDISC SDTM Pharmacokinetic Parameter Unit of Measure Terminology", "type": "Code List"}, "rootItem": {"href": "/mdr/root/ct/sdtmct/codelists/C85494", "title": "Version-agnostic anchor resource for codelist C85494", "type": "Root Value Domain"}, "self": {"href": "/mdr/ct/packages/sdtmct-2022-12-16/codelists/C85494", "title": "CDISC SDTM Pharmacokinetic Parameter Unit of Measure Terminology", "type": "Code List"}}, "conceptId": "C85494", "definition": "Units of measure for pharmacokinetic data and parameters.", "extensible": "true", "name": "PK Units of Measure", "preferredTerm": "CDISC SDTM Pharmacokinetic Parameter Unit of Measure Terminology", "submissionValue": "PKUNIT", "synonyms": ["PK Units of Measure"], "terms": [{"conceptId": "C25613", "definition": "One hundred times the quotient of one quantity divided by another, with the same units of measurement.", "preferredTerm": "Percentage", "submissionValue": "%", "synonyms": ["Percentage"]}, {"conceptId": "C181520", "definition": "Percentage of the administered dose recovered per gram of matrix or tissue, normalized by the sample weight.", "preferredTerm": "Percent Administered Dose Recovered Per Gram", "submissionValue": "%/g"}, {"conceptId": "C163549", "definition": "Becquerel per gram, divided by dose per kilogram body weight or Becquerel per gram, divided by dose per gram body weight.", "preferredTerm": "Becquerel per Gram per Kilobecquerel per Kilogram", "submissionValue": "(Bq/g)/(kBq/kg)", "synonyms": ["(Bq/g)/(Bq/g)", "(Bq/g)/(kBq/kg)"]}, {"conceptId": "C163550", "definition": "Becquerel per milliliter, divided by dose per kilogram body weight or Becquerel per milliliter, divided by dose per gram body weight.", "preferredTerm": "Becquerel per Milliliter per Kilobecquerel per Kilogram", "submissionValue": "(Bq/mL)/(kBq/kg)", "synonyms": ["(Bq/mL)/(Bq/g)", "(Bq/mL)/(kBq/kg)"]}, {"conceptId": "C163551", "definition": "Hours times Becquerel per gram (area under the curve), divided by dose per kilogram body weight or hours times Becquerel per gram (area under the curve), divided by dose per gram body weight.", "preferredTerm": "Hour Times Becquerel per Gram per Kilobecquerel per Kilogram", "submissionValue": "(h*Bq/g)/(kBq/kg)", "synonyms": ["(h*Bq/g)/(Bq/g)", "(h*Bq/g)/(kBq/kg)"]}, {"conceptId": "C163552", "definition": "Hours times Becquerel per milliliter (area under the curve), divided by dose per kilogram body weight or hours times Becquerel per milliliter (area under the curve), divided by dose per gram body weight.", "preferredTerm": "Hour Times Becquerel per Milliliter per Kilobecquerel per Kilogram", "submissionValue": "(h*Bq/mL)/(kBq/kg)", "synonyms": ["(h*Bq/mL)/(Bq/g)", "(h*Bq/mL)/(kBq/kg)"]}, {"conceptId": "C120727", "definition": "Liters per day (flow rate), divided by kilograms per meter squared (body mass index).", "preferredTerm": "Liter per Day per Kilogram per Meter Squared", "submissionValue": "(L/day)/(kg/m2)"}, {"conceptId": "C120728", "definition": "Liters per day (flow rate), divided by milligrams per day (daily dose) or milliliters per day (flow rate), divided by micrograms per day (daily dose).", "preferredTerm": "Liter per Day per Milligram per Day", "submissionValue": "(L/day)/(mg/day)", "synonyms": ["(L/day)/(mg/day)", "(mL/day)/(ug/day)"]}, {"conceptId": "C120729", "definition": "Liters per day (flow rate), divided by milligrams per kilogram (dose normalized by body weight) or milliliters per day (flow rate), divided by micrograms per kilogram (dose normalized by body weight).", "preferredTerm": "Liter per Day per Milligram per Kilogram", "submissionValue": "(L/day)/(mg/kg)", "synonyms": ["(L/day)/(mg/kg)", "(mL/day)/(ug/kg)"]}, {"conceptId": "C120730", "definition": "Liters per day (flow rate), divided by milligrams per kilogram per day (daily dose normalized by body weight) or milliliters per day (flow rate), divided by micrograms per kilogram per day (daily dose normalized by body weight).", "preferredTerm": "Liter per Day per Milligram per Kilogram per Day", "submissionValue": "(L/day)/(mg/kg/day)", "synonyms": ["(L/day)/(mg/kg/day)", "(mL/day)/(ug/kg/day)"]}, {"conceptId": "C120731", "definition": "Liters per day (flow rate), divided by milligrams per meter squared (dose normalized by surface area) or milliliters per day (flow rate), divided by micrograms per meter squared (dose normalized by surface area).", "preferredTerm": "Liter per Day per Milligram per Meter Squared", "submissionValue": "(L/day)/(mg/m2)", "synonyms": ["(L/day)/(mg/m2)", "(mL/day)/(ug/m2)"]}, {"conceptId": "C120732", "definition": "Liters per day (flow rate), divided by milligrams per meter squared per day (daily dose normalized by surface area) or milliliters per day (flow rate), divided by micrograms per meter squared per day (daily dose normalized by surface area).", "preferredTerm": "Liter per Day per Milligram per Meter Squared per Day", "submissionValue": "(L/day)/(mg/m2/day)", "synonyms": ["(L/day)/(mg/m2/day)", "(mL/day)/(ug/m2/day)"]}, {"conceptId": "C120733", "definition": "Liters per day (flow rate), divided by micrograms per day (daily dose).", "preferredTerm": "Liter per Day per Microgram per Day", "submissionValue": "(L/day)/(ug/day)"}, {"conceptId": "C120734", "definition": "Liters per day (flow rate), divided by micrograms per kilogram (dose normalized by body weight).", "preferredTerm": "Liter per Day per Microgram per Kilogram", "submissionValue": "(L/day)/(ug/kg)"}, {"conceptId": "C120735", "definition": "Liters per day (flow rate), divided by micrograms per kilogram per day (daily dose normalized by body weight).", "preferredTerm": "Liter per Day per Microgram per Kilogram per Day", "submissionValue": "(L/day)/(ug/kg/day)"}, {"conceptId": "C120736", "definition": "Liters per day (flow rate), divided by micrograms per meter squared (dose normalized by surface area).", "preferredTerm": "Liter per Day per Microgram per Meter Squared", "submissionValue": "(L/day)/(ug/m2)"}, {"conceptId": "C120737", "definition": "Liters per day (flow rate), divided by micrograms per meter squared per day (daily dose normalized by surface area).", "preferredTerm": "Liter per Day per Microgram per Meter Squared per Day", "submissionValue": "(L/day)/(ug/m2/day)"}, {"conceptId": "C85657", "definition": "Liters per day (flow rate), divided by grams (weight) or milliliters per day (flow rate), divided by milligrams (dose).", "preferredTerm": "Liter per Gram per Day", "submissionValue": "(L/day)/g", "synonyms": ["(L/day)/g", "(mL/day)/mg"]}, {"conceptId": "C73755", "definition": "Milliliters per gram per day or liters per day (flow rate), divided by kilograms (weight) or milliliters per day (flow rate), divided by grams (weight).", "preferredTerm": "Milliliter per Gram per Day", "submissionValue": "(L/day)/kg", "synonyms": ["(L/day)/kg", "(mL/day)/g", "mL/g/day"]}, {"conceptId": "C120738", "definition": "Liters per day (flow rate), divided by meters squared (surface area).", "preferredTerm": "Liter per Day per Meter Squared", "submissionValue": "(L/day)/m2"}, {"conceptId": "C85672", "definition": "Liters per day (flow rate), divided by milligrams (dose) or milliliters per day (flow rate), divided by micrograms (dose).", "preferredTerm": "Liter per Milligram per Day", "submissionValue": "(L/day)/mg", "synonyms": ["(L/day)/mg", "(mL/day)/ug"]}, {"conceptId": "C85665", "definition": "Liters per day (flow rate), divided by micrograms (dose).", "preferredTerm": "Liter per Microgram per Day", "submissionValue": "(L/day)/ug"}, {"conceptId": "C120739", "definition": "Liters per hour (flow rate), divided by kilograms per meter squared (body mass index).", "preferredTerm": "Liter per Hour per Kilogram per Meter Squared", "submissionValue": "(L/h)/(kg/m2)"}, {"conceptId": "C120740", "definition": "Liters per hour (flow rate), divided by milligrams per day (daily dose) or milliliters per hour (flow rate), divided by micrograms per day (daily dose).", "preferredTerm": "Liter per Hour per Milligram per Day", "submissionValue": "(L/h)/(mg/day)", "synonyms": ["(L/h)/(mg/day)", "(mL/h)/(ug/day)"]}, {"conceptId": "C120741", "definition": "Liters per hour (flow rate), divided by milligrams per kilogram (dose normalized by body weight) or milliliters per hour (flow rate), divided by micrograms per kilogram (dose normalized by body weight).", "preferredTerm": "Liter per Hour per Milligram per Kilogram", "submissionValue": "(L/h)/(mg/kg)", "synonyms": ["(L/h)/(mg/kg)", "(mL/h)/(ug/kg)"]}, {"conceptId": "C120742", "definition": "Liters per hour (flow rate), divided by milligrams per kilogram per day (daily dose normalized by body weight) or milliliters per hour (flow rate), divided by micrograms per kilogram per day (daily dose normalized by body weight).", "preferredTerm": "Liter per Hour per Milligram per Kilogram per Day", "submissionValue": "(L/h)/(mg/kg/day)", "synonyms": ["(L/h)/(mg/kg/day)", "(mL/h)/(ug/kg/day)"]}, {"conceptId": "C120743", "definition": "Liters per hour (flow rate), divided by milligrams per meter squared (dose normalized by surface area) or milliliters per hour (flow rate), divided by micrograms per meter squared (dose normalized by surface area).", "preferredTerm": "Liter per Hour per Milligram per Meter Squared", "submissionValue": "(L/h)/(mg/m2)", "synonyms": ["(L/h)/(mg/m2)", "(mL/h)/(ug/m2)"]}, {"conceptId": "C120744", "definition": "Liters per hour (flow rate), divided by milligrams per meter squared per day (daily dose normalized by surface area) or milliliters per hour (flow rate), divided by micrograms per meter squared per day (daily dose normalized by surface area).", "preferredTerm": "Liter per Hour per Milligram per Meter Squared per Day", "submissionValue": "(L/h)/(mg/m2/day)", "synonyms": ["(L/h)/(mg/m2/day)", "(mL/h)/(ug/m2/day)"]}, {"conceptId": "C120745", "definition": "Liters per hour (flow rate), divided by micrograms per day (daily dose).", "preferredTerm": "Liter per Hour per Microgram per Day", "submissionValue": "(L/h)/(ug/day)"}, {"conceptId": "C120746", "definition": "Liters per hour (flow rate), divided by micrograms per kilogram (dose normalized by body weight).", "preferredTerm": "Liter per Hour per Microgram per Kilogram", "submissionValue": "(L/h)/(ug/kg)"}, {"conceptId": "C120747", "definition": "Liters per hour (flow rate), divided by micrograms per kilogram per day (daily dose normalized by body weight).", "preferredTerm": "Liter per Hour per Microgram per Kilogram per Day", "submissionValue": "(L/h)/(ug/kg/day)"}, {"conceptId": "C120748", "definition": "Liters per hour (flow rate), divided by micrograms per meter squared (dose normalized by surface area).", "preferredTerm": "Liter per Hour per Microgram per Meter Squared", "submissionValue": "(L/h)/(ug/m2)"}, {"conceptId": "C120749", "definition": "Liters per hour (flow rate), divided by micrograms per meter squared per day (daily dose normalized by surface area).", "preferredTerm": "Liter per Hour per Microgram per Meter Squared per Day", "submissionValue": "(L/h)/(ug/m2/day)"}, {"conceptId": "C85658", "definition": "Liters per hour (flow rate), divided by grams (weight) or milliliters per hour (flow rate), divided by milligrams (dose).", "preferredTerm": "Liter per Gram per Hour", "submissionValue": "(L/h)/g", "synonyms": ["(L/h)/g", "(mL/h)/mg"]}, {"conceptId": "C73756", "definition": "Milliliters per gram per hour or liters per hour (flow rate), divided by kilograms (weight) or milliliters per hour (flow rate), divided by grams (weight).", "preferredTerm": "Milliliter per Gram per Hour", "submissionValue": "(L/h)/kg", "synonyms": ["(L/h)/kg", "(mL/h)/g", "mL/g/h"]}, {"conceptId": "C105494", "definition": "Liters per hour (flow rate), divided by meters squared (surface area).", "preferredTerm": "Liter Per Hour Per Square Meter", "submissionValue": "(L/h)/m2", "synonyms": ["(L/h)/m2", "L/h/m2"]}, {"conceptId": "C85673", "definition": "Liters per hour (flow rate), divided by milligrams (dose) or milliliters per hour (flow rate), divided by micrograms (dose).", "preferredTerm": "Liter per Milligram per Hour", "submissionValue": "(L/h)/mg", "synonyms": ["(L/h)/mg", "(mL/h)/ug"]}, {"conceptId": "C85662", "definition": "Liters per hour (flow rate), divided by micrograms (dose).", "preferredTerm": "Liter per Microgram per Hour", "submissionValue": "(L/h)/ug"}, {"conceptId": "C120750", "definition": "Liters per minute (flow rate), divided by kilograms per meter squared (body mass index).", "preferredTerm": "Liter per Minute per Kilogram per Meter Squared", "submissionValue": "(L/min)/(kg/m2)"}, {"conceptId": "C120751", "definition": "Liters per minute (flow rate), divided by milligrams per day (daily dose) or milliliters per minute (flow rate), divided by micrograms per day (daily dose).", "preferredTerm": "Liter per Minute per Milligram per Day", "submissionValue": "(L/min)/(mg/day)", "synonyms": ["(L/min)/(mg/day)", "(mL/min)/(ug/day)"]}, {"conceptId": "C120752", "definition": "Liters per minute (flow rate), divided by milligrams per kilogram (dose normalized by body weight) or milliliters per minute (flow rate), divided by micrograms per kilogram (dose normalized by body weight).", "preferredTerm": "Liter per Minute per Milligram per Kilogram", "submissionValue": "(L/min)/(mg/kg)", "synonyms": ["(L/min)/(mg/kg)", "(mL/min)/(ug/kg)"]}, {"conceptId": "C120753", "definition": "Liters per minute (flow rate), divided by milligrams per kilogram per day (daily dose normalized by body weight) or milliliters per minute (flow rate), divided by micrograms per kilogram per day (daily dose normalized by body weight).", "preferredTerm": "Liter per Minute per Milligram per Kilogram per Day", "submissionValue": "(L/min)/(mg/kg/day)", "synonyms": ["(L/min)/(mg/kg/day)", "(mL/min)/(ug/kg/day)"]}, {"conceptId": "C120754", "definition": "Liters per minute (flow rate), divided by milligrams per meter squared (dose normalized by surface area) or milliliters per minute (flow rate), divided by micrograms per meter squared (dose normalized by surface area).", "preferredTerm": "Liter per Minute per Milligram per Meter Squared", "submissionValue": "(L/min)/(mg/m2)", "synonyms": ["(L/min)/(mg/m2)", "(mL/min)/(ug/m2)"]}, {"conceptId": "C120755", "definition": "Liters per minute (flow rate), divided by milligrams per meter squared per day (daily dose normalized by surface area) or milliliters per minute (flow rate), divided by micrograms per meter squared per day (daily dose normalized by surface area).", "preferredTerm": "Liter per Minute per Milligram per Meter Squared per Day", "submissionValue": "(L/min)/(mg/m2/day)", "synonyms": ["(L/min)/(mg/m2/day)", "(mL/min)/(ug/m2/day)"]}, {"conceptId": "C120756", "definition": "Liters per minute (flow rate), divided by micrograms per day (daily dose).", "preferredTerm": "Liter per Minute per Microgram per Day", "submissionValue": "(L/min)/(ug/day)"}, {"conceptId": "C120757", "definition": "Liters per minute (flow rate), divided by micrograms per kilogram (dose normalized by body weight).", "preferredTerm": "Liter per Minute per Microgram per Kilogram", "submissionValue": "(L/min)/(ug/kg)"}, {"conceptId": "C120758", "definition": "Liters per minute (flow rate), divided by micrograms per kilogram per day (daily dose normalized by body weight).", "preferredTerm": "Liter per Minute per Microgram per Kilogram per Day", "submissionValue": "(L/min)/(ug/kg/day)"}, {"conceptId": "C120759", "definition": "Liters per minute (flow rate), divided by micrograms per meter squared (dose normalized by surface area).", "preferredTerm": "Liter per Minute per Microgram per Meter Squared", "submissionValue": "(L/min)/(ug/m2)"}, {"conceptId": "C120760", "definition": "Liters per minute (flow rate), divided by micrograms per meter squared per day (daily dose normalized by surface area).", "preferredTerm": "Liter per Minute per Microgram per Meter Squared per Day", "submissionValue": "(L/min)/(ug/m2/day)"}, {"conceptId": "C85659", "definition": "Liters per minute (flow rate), divided by grams (weight) or milliliters per minute (flow rate), divided by milligrams (dose).", "preferredTerm": "Liter per Gram per Minute", "submissionValue": "(L/min)/g", "synonyms": ["(L/min)/g", "(mL/min)/mg"]}, {"conceptId": "C73757", "definition": "Milliliters per gram per minute or liters per minute (flow rate), divided by kilograms (weight) or milliliters per minute (flow rate), divided by grams (weight).", "preferredTerm": "Milliliter per Gram per Minute", "submissionValue": "(L/min)/kg", "synonyms": ["(L/min)/kg", "(mL/min)/g", "mL/g/min"]}, {"conceptId": "C105496", "definition": "Liters per minute (flow rate), divided by meters squared (surface area).", "preferredTerm": "Liter Per Minute Per Square Meter", "submissionValue": "(L/min)/m2", "synonyms": ["(L/min)/m2", "L/min/m2"]}, {"conceptId": "C85674", "definition": "Liters per minute (flow rate), divided by milligrams (dose) or milliliters per minute (flow rate), divided by micrograms (dose).", "preferredTerm": "Liter per Milligram per Minute", "submissionValue": "(L/min)/mg", "synonyms": ["(L/min)/mg", "(mL/min)/ug"]}, {"conceptId": "C85666", "definition": "Liters per minute (flow rate), divided by micrograms (dose).", "preferredTerm": "Liter per Microgram per Minute", "submissionValue": "(L/min)/ug"}, {"conceptId": "C120761", "definition": "Milliliters per day (flow rate), divided by kilograms per meter squared (body mass index).", "preferredTerm": "Milliliter per Day per Kilogram per Meter Squared", "submissionValue": "(mL/day)/(kg/m2)"}, {"conceptId": "C120762", "definition": "Milliliters per day (flow rate), divided by milligrams per day (daily dose).", "preferredTerm": "Milliliter per Day per Milligram per Day", "submissionValue": "(mL/day)/(mg/day)"}, {"conceptId": "C120763", "definition": "Milliliters per day (flow rate), divided by milligrams per kilogram (dose normalized by body weight).", "preferredTerm": "Milliliter per Day per Milligram per Kilogram", "submissionValue": "(mL/day)/(mg/kg)"}, {"conceptId": "C120764", "definition": "Milliliters per day (flow rate), divided by milligrams per kilogram per day (daily dose normalized by body weight).", "preferredTerm": "Milliliter per Day per Milligram per Kilogram per Day", "submissionValue": "(mL/day)/(mg/kg/day)"}, {"conceptId": "C120765", "definition": "Milliliters per day (flow rate), divided by milligrams per meter squared (dose normalized by surface area).", "preferredTerm": "Milliliter per Day per Milligram per Meter Squared", "submissionValue": "(mL/day)/(mg/m2)"}, {"conceptId": "C120766", "definition": "Milliliters per day (flow rate), divided by milligrams per meter squared per day (daily dose normalized by surface area).", "preferredTerm": "Milliliter per Day per Milligram per Meter Squared per Day", "submissionValue": "(mL/day)/(mg/m2/day)"}, {"conceptId": "C73758", "definition": "Milliliters per kilogram per day or milliliters per day (flow rate), divided by kilograms (weight).", "preferredTerm": "Milliliter per Kilogram per Day", "submissionValue": "(mL/day)/kg", "synonyms": ["(mL/day)/kg", "mL/kg/day"]}, {"conceptId": "C120773", "definition": "Milliliters per day (flow rate), divided by meters squared (surface area).", "preferredTerm": "Milliliter per Day per Meter Squared", "submissionValue": "(mL/day)/m2"}, {"conceptId": "C120776", "definition": "Milliliters per hour (flow rate), divided by kilograms per meter squared (body mass index).", "preferredTerm": "Milliliter per Hour per Kilogram per Meter Squared", "submissionValue": "(mL/h)/(kg/m2)"}, {"conceptId": "C120777", "definition": "Milliliters per hour (flow rate), divided by milligrams per day (daily dose).", "preferredTerm": "Milliliter per Hour per Milligram per Day", "submissionValue": "(mL/h)/(mg/day)"}, {"conceptId": "C120778", "definition": "Milliliters per hour (flow rate), divided by milligrams per kilogram (dose normalized by body weight).", "preferredTerm": "Milliliter per Hour per Milligram per Kilogram", "submissionValue": "(mL/h)/(mg/kg)"}, {"conceptId": "C120779", "definition": "Milliliters per hour (flow rate), divided by milligrams per kilogram per day (daily dose normalized by body weight).", "preferredTerm": "Milliliter per Hour per Milligram per Kilogram per Day", "submissionValue": "(mL/h)/(mg/kg/day)"}, {"conceptId": "C120780", "definition": "Milliliters per hour (flow rate), divided by milligrams per meter squared (dose normalized by surface area).", "preferredTerm": "Milliliter per Hour per Milligram per Meter Squared", "submissionValue": "(mL/h)/(mg/m2)"}, {"conceptId": "C120781", "definition": "Milliliters per hour (flow rate), divided by milligrams per meter squared per day (daily dose normalized by surface area).", "preferredTerm": "Milliliter per Hour per Milligram per Meter Squared per Day", "submissionValue": "(mL/h)/(mg/m2/day)"}, {"conceptId": "C73759", "definition": "Milliliters per kilogram per hour or milliliters per hour (flow rate), divided by kilograms (weight).", "preferredTerm": "Milliliter per Kilogram per Hour", "submissionValue": "(mL/h)/kg", "synonyms": ["(mL/h)/kg", "mL/kg/h"]}, {"conceptId": "C120788", "definition": "Milliliters per hour (flow rate), divided by meters squared (surface area).", "preferredTerm": "Milliliter per Hour per Meter Squared", "submissionValue": "(mL/h)/m2"}, {"conceptId": "C120791", "definition": "Milliliters per minute (flow rate), divided by kilograms per meter squared (body mass index).", "preferredTerm": "Milliliter per Minute per Kilogram per Meter Squared", "submissionValue": "(mL/min)/(kg/m2)"}, {"conceptId": "C120792", "definition": "Milliliters per minute (flow rate), divided by milligrams per day (daily dose).", "preferredTerm": "Milliliter per Minute per Milligram per Day", "submissionValue": "(mL/min)/(mg/day)"}, {"conceptId": "C120793", "definition": "Milliliters per minute (flow rate), divided by milligrams per kilogram (dose normalized by body weight).", "preferredTerm": "Milliliter per Minute per Milligram per Kilogram", "submissionValue": "(mL/min)/(mg/kg)"}, {"conceptId": "C120794", "definition": "Milliliters per minute (flow rate), divided by milligrams per kilogram per day (daily dose normalized by body weight).", "preferredTerm": "Milliliter per Minute per Milligram per Kilogram per Day", "submissionValue": "(mL/min)/(mg/kg/day)"}, {"conceptId": "C120795", "definition": "Milliliters per minute (flow rate), divided by milligrams per meter squared (dose normalized by surface area).", "preferredTerm": "Milliliter per Minute per Milligram per Meter Squared", "submissionValue": "(mL/min)/(mg/m2)"}, {"conceptId": "C120796", "definition": "Milliliters per minute (flow rate), divided by milligrams per meter squared per day (daily dose normalized by surface area).", "preferredTerm": "Milliliter per Minute per Milligram per Meter Squared per Day", "submissionValue": "(mL/min)/(mg/m2/day)"}, {"conceptId": "C73760", "definition": "Milliliters per kilogram per minute or milliliters per minute (flow rate), divided by kilograms (weight).", "preferredTerm": "Milliliter per Kilogram per Minute", "submissionValue": "(mL/min)/kg", "synonyms": ["(mL/min)/kg", "mL/kg/min"]}, {"conceptId": "C120803", "definition": "Milliliters per minute (flow rate), divided by meters squared (surface area).", "preferredTerm": "Milliliter per Minute per Meter Squared", "submissionValue": "(mL/min)/m2"}, {"conceptId": "C25473", "definition": "A rate of occurrences within a period of time equal to one day.", "preferredTerm": "Daily", "submissionValue": "/day", "synonyms": ["/day", "Daily", "Per Day"]}, {"conceptId": "C66966", "definition": "A rate of occurrences within a period of time equal to one hour.", "preferredTerm": "Per Hour", "submissionValue": "/h", "synonyms": ["Per Hour"]}, {"conceptId": "C66967", "definition": "A rate of occurrences within a period of time equal to one minute.", "preferredTerm": "Per Minute", "submissionValue": "/min"}, {"conceptId": "C42562", "definition": "A unit of activity of a radionuclide, equal to one nuclear disintegration or other nuclear transition from a particular energy state occurring in an amount of a radionuclide during one second-long time interval.(NCI)", "preferredTerm": "Becquerel", "submissionValue": "Bq", "synonyms": ["Becquerel"]}, {"conceptId": "C70522", "definition": "A unit of specific radioactivity (massic activity) equal to activity of one Becquerel of the sample with total mass of one gram.(NCI)", "preferredTerm": "Becquerel per Gram", "submissionValue": "Bq/g", "synonyms": ["Becquerel per Gram"]}, {"conceptId": "C70521", "definition": "A unit of specific radioactivity (massic activity) equal to activity of one Becquerel of the sample with total mass of one kilogram.(NCI)", "preferredTerm": "Becquerel per Kilogram", "submissionValue": "Bq/kg", "synonyms": ["Becquerel per Kilogram"]}, {"conceptId": "C71165", "definition": "A unit of volumetric radioactivity concentration defined as a concentration of a radionuclide with an activity equal to one Becquerel per unit volume equal to one liter.(NCI)", "preferredTerm": "Becquerel per Liter", "submissionValue": "Bq/L", "synonyms": ["Becquerel per Liter"]}, {"conceptId": "C70524", "definition": "A unit of specific radioactivity (massic activity) equal to activity of one Becquerel of the sample with total mass of one milligram.(NCI)", "preferredTerm": "Becquerel per Milligram", "submissionValue": "Bq/mg", "synonyms": ["Becquerel per Milligram", "kBq/g", "Kilobecquerel per Gram"]}, {"conceptId": "C71167", "definition": "A unit of volumetric radioactivity concentration defined as a concentration of a radionuclide with an activity equal to one Becquerel per unit volume equal to one milliliter or one kilobecquerel per liter.(NCI)", "preferredTerm": "Becquerel per Milliliter", "submissionValue": "Bq/mL", "synonyms": ["Becquerel per Milliliter", "kBq/L", "Kilobecquerel per Liter"]}, {"conceptId": "C70523", "definition": "A unit of specific radioactivity (massic activity) equal to activity of one Becquerel of the sample with total mass of one microgram, or equal to activity of one kilobecquerel of the sample with total mass of one milligram.", "preferredTerm": "Becquerel per Microgram", "submissionValue": "Bq/ug", "synonyms": ["Becquerel per Microgram", "Bq/mcg", "Bq/ug", "kBq/mg", "Kilobecquerel per Milligram", "MBq/g", "Megabecquerel per Gram"]}, {"conceptId": "C71166", "definition": "A unit of volumetric radioactivity concentration defined as a concentration of a radionuclide with an activity equal to one Becquerel per unit volume equal to one millionth of a liter.(NCI)", "preferredTerm": "Becquerel per Microliter", "submissionValue": "Bq/uL", "synonyms": ["Becquerel per Microliter", "kBq/mL", "Kilobecquerel per Milliliter", "MBq/L", "Megabecquerel per Liter"]}, {"conceptId": "C25301", "definition": "A unit of measurement of time equal to 24 hours.", "preferredTerm": "Day", "submissionValue": "day"}, {"conceptId": "C85583", "definition": "Days times femtograms per milliliter (area under the curve).", "preferredTerm": "Day Times Femtogram per Milliliter", "submissionValue": "day*fg/mL"}, {"conceptId": "C111167", "definition": "Days times femtograms per milliliter (area under the curve), divided by kilograms per meter squared (body mass index).", "preferredTerm": "Day Times Femtogram per Milliliter per Kilogram per Meter Squared", "submissionValue": "day*fg/mL/(kg/m2)"}, {"conceptId": "C117894", "definition": "Days times femtograms per milliliter (area under the curve), divided by milligrams per gram (dose normalized by body weight).", "preferredTerm": "Day Times Femtogram Per Milliliter Per Milligram Per Gram", "submissionValue": "day*fg/mL/(mg/g)"}, {"conceptId": "C117895", "definition": "Days times femtograms per milliliter (area under the curve), divided by milligrams per gram per day (daily dose normalized by body weight).", "preferredTerm": "Day Times Femtogram Per Milliliter Per Milligram Per Gram Per Day", "submissionValue": "day*fg/mL/(mg/g/day)"}, {"conceptId": "C112244", "definition": "Days times picograms per milliliter (area under the curve), divided by kilograms (weight) or days times femtograms per milliliter (area under the curve), divided by grams (weight).", "preferredTerm": "Day Times Femtogram Per Milliliter Per Gram", "submissionValue": "day*fg/mL/g", "synonyms": ["day*fg/mL/g", "day*pg/mL/kg"]}, {"conceptId": "C112245", "definition": "Days times femtograms per milliliter (area under the curve), divided by kilograms (weight).", "preferredTerm": "Day Times Femtogram Per Milliliter Per Kilogram", "submissionValue": "day*fg/mL/kg"}, {"conceptId": "C111168", "definition": "Days times femtograms per milliliter (area under the curve), divided by meters squared (surface area).", "preferredTerm": "Day Times Femtogram per Milliliter per Meter Squared", "submissionValue": "day*fg/mL/m2"}, {"conceptId": "C85584", "definition": "Days times grams per milliliter (area under the curve).", "preferredTerm": "Day Times Gram per Milliliter", "submissionValue": "day*g/mL"}, {"conceptId": "C111169", "definition": "Days times grams per milliliter (area under the curve), divided by kilograms per meter squared (body mass index).", "preferredTerm": "Day Times Gram per Milliliter per Kilogram per Meter Squared", "submissionValue": "day*g/mL/(kg/m2)"}, {"conceptId": "C117896", "definition": "Days times grams per milliliter (area under the curve), divided by milligrams per gram (dose normalized by body weight).", "preferredTerm": "Day Times gram Per Milliliter Per Milligram Per Gram", "submissionValue": "day*g/mL/(mg/g)"}, {"conceptId": "C117897", "definition": "Days times grams per milliliter (area under the curve), divided by milligrams per gram per day (daily dose normalized by body weight).", "preferredTerm": "Day Times gram Per Milliliter Per Milligram Per Gram Per Day", "submissionValue": "day*g/mL/(mg/g/day)"}, {"conceptId": "C112246", "definition": "Days times grams per milliliter (area under the curve), divided by grams (weight).", "preferredTerm": "Day Times Gram Per Milliliter Per Gram", "submissionValue": "day*g/mL/g"}, {"conceptId": "C112247", "definition": "Days times grams per milliliter (area under the curve), divided by kilograms (weight); or days times milligrams per milliliter (area under the curve), divided by grams (weight); or days times micrograms per milliliter (area under the curve), divided by milligrams (dose); or days times nanograms per milliliter (area under the curve), divided by micrograms (dose).", "preferredTerm": "Day Times Gram Per Milliliter Per Kilogram", "submissionValue": "day*g/mL/kg", "synonyms": ["day*g/mL/kg", "day*mg/mL/g", "day*ng/mL/ug", "day*ug/mL/mg"]}, {"conceptId": "C111170", "definition": "Days times grams per milliliter (area under the curve), divided by meters squared (surface area).", "preferredTerm": "Day Times Gram per Milliliter per Meter Squared", "submissionValue": "day*g/mL/m2"}, {"conceptId": "C85588", "definition": "Days times milligrams per milliliter (area under the curve).", "preferredTerm": "Day Times Milligram per Milliliter", "submissionValue": "day*mg/mL"}, {"conceptId": "C111175", "definition": "Days times milligrams per milliliter (area under the curve), divided by kilograms per meter squared (body mass index).", "preferredTerm": "Day Times Milligram per Milliliter per Kilogram per Meter Squared", "submissionValue": "day*mg/mL/(kg/m2)"}, {"conceptId": "C117898", "definition": "Days times milligrams per milliliter (area under the curve), divided by milligrams per gram (dose normalized by body weight).", "preferredTerm": "Day Times Milligram Per Milliliter Per Milligram Per Gram", "submissionValue": "day*mg/mL/(mg/g)"}, {"conceptId": "C117899", "definition": "Days times milligrams per milliliter (area under the curve), divided by milligrams per gram per day (daily dose normalized by body weight).", "preferredTerm": "Day Times Milligram Per Milliliter Per Milligram Per Gram Per Day", "submissionValue": "day*mg/mL/(mg/g/day)"}, {"conceptId": "C111176", "definition": "Days times milligrams per milliliter (area under the curve), divided by meters squared (surface area).", "preferredTerm": "Day Times Milligram per Milliliter per Meter Squared", "submissionValue": "day*mg/mL/m2"}, {"conceptId": "C85587", "definition": "Days times millimoles per liter (area under the curve).", "preferredTerm": "Day Times Micromole per Milliliter", "submissionValue": "day*mmol/L"}, {"conceptId": "C111177", "definition": "Days times millimoles per liter (area under the curve), divided by kilograms per meter squared (body mass index).", "preferredTerm": "Day Times Millimole per Liter per Kilogram per Meter Squared", "submissionValue": "day*mmol/L/(kg/m2)"}, {"conceptId": "C117900", "definition": "Days times millimoles per liter (area under the curve), divided by milligrams per gram (dose normalized by body weight).", "preferredTerm": "Day Times Millimole Per Liter Per Milligram Per Gram", "submissionValue": "day*mmol/L/(mg/g)"}, {"conceptId": "C117901", "definition": "Days times millimoles per liter (area under the curve), divided by milligrams per gram per day (daily dose normalized by body weight).", "preferredTerm": "Day Times Millimole Per Liter Per Milligram Per Gram Per Day", "submissionValue": "day*mmol/L/(mg/g/day)"}, {"conceptId": "C112254", "definition": "Days times moles per liter (area under the curve), divided by kilograms (weight) or days times millimoles per liter (area under the curve), divided by grams (weight).", "preferredTerm": "Day Times Millimole Per Liter Per Gram", "submissionValue": "day*mmol/L/g", "synonyms": ["day*mmol/L/g", "day*mol/L/kg"]}, {"conceptId": "C111178", "definition": "Days times millimoles per liter (area under the curve), divided by meters squared (surface area).", "preferredTerm": "Day Times Millimole per Liter per Meter Squared", "submissionValue": "day*mmol/L/m2"}, {"conceptId": "C85589", "definition": "Days times moles per liter (area under the curve).", "preferredTerm": "Day Times Millimole per Milliliter", "submissionValue": "day*mol/L"}, {"conceptId": "C111179", "definition": "Days times moles per liter (area under the curve), divided by kilograms per meter squared (body mass index).", "preferredTerm": "Day Times Mole per Liter per Kilogram per Meter Squared", "submissionValue": "day*mol/L/(kg/m2)"}, {"conceptId": "C117902", "definition": "Days times moles per liter (area under the curve), divided by milligrams per gram (dose normalized by body weight).", "preferredTerm": "Day Times mole Per Liter Per Milligram Per Gram", "submissionValue": "day*mol/L/(mg/g)"}, {"conceptId": "C117903", "definition": "Days times moles per liter (area under the curve), divided by milligrams per gram per day (daily dose normalized by body weight).", "preferredTerm": "Day Times mole Per Liter Per Milligram Per Gram Per Day", "submissionValue": "day*mol/L/(mg/g/day)"}, {"conceptId": "C112256", "definition": "Days times moles per liter (area under the curve), divided by grams (weight).", "preferredTerm": "Day Times Mole Per Liter Per Gram", "submissionValue": "day*mol/L/g"}, {"conceptId": "C111180", "definition": "Days times moles per liter (area under the curve), divided by meters squared (surface area).", "preferredTerm": "Day Times Mole per Liter per Meter Squared", "submissionValue": "day*mol/L/m2"}, {"conceptId": "C85591", "definition": "Days times nanograms per milliliter (area under the curve).", "preferredTerm": "Day Times Nanogram per Milliliter", "submissionValue": "day*ng/mL"}, {"conceptId": "C111181", "definition": "Days times nanograms per milliliter (area under the curve), divided by kilograms per meter squared (body mass index).", "preferredTerm": "Day Times Nanogram per Milliliter per Kilogram per Meter Squared", "submissionValue": "day*ng/mL/(kg/m2)"}, {"conceptId": "C117904", "definition": "Days times nanograms per milliliter (area under the curve), divided by milligrams per gram (dose normalized by body weight).", "preferredTerm": "Day Times Nanogram Per Milliliter Per Milligram Per Gram", "submissionValue": "day*ng/mL/(mg/g)"}, {"conceptId": "C117905", "definition": "Days times nanograms per milliliter (area under the curve), divided by milligrams per gram per day (daily dose normalized by body weight).", "preferredTerm": "Day Times Nanogram Per Milliliter Per Milligram Per Gram Per Day", "submissionValue": "day*ng/mL/(mg/g/day)"}, {"conceptId": "C112259", "definition": "Days times nanograms per milliliter (area under the curve), divided by kilograms (weight) or days times picograms per milliliter (area under the curve), divided by grams (weight).", "preferredTerm": "Day Times Nanogram Per Milliliter Per Kilogram", "submissionValue": "day*ng/mL/kg", "synonyms": ["day*ng/mL/kg", "day*pg/mL/g"]}, {"conceptId": "C111182", "definition": "Days times nanograms per milliliter (area under the curve), divided by meters squared (surface area).", "preferredTerm": "Day Times Nanogram per Milliliter per Meter Squared", "submissionValue": "day*ng/mL/m2"}, {"conceptId": "C85594", "definition": "Days times nanomoles per liter (area under the curve).", "preferredTerm": "Day Times Picomole per Milliliter", "submissionValue": "day*nmol/L"}, {"conceptId": "C111183", "definition": "Days times nanomoles per liter (area under the curve), divided by kilograms per meter squared (body mass index).", "preferredTerm": "Day Times Nanomole per Liter per Kilogram per Meter Squared", "submissionValue": "day*nmol/L/(kg/m2)"}, {"conceptId": "C117906", "definition": "Days times nanomoles per liter (area under the curve), divided by milligrams per gram (dose normalized by body weight).", "preferredTerm": "Day Times Nanomole Per Liter Per Milligram Per Gram", "submissionValue": "day*nmol/L/(mg/g)"}, {"conceptId": "C117907", "definition": "Days times nanomoles per liter (area under the curve), divided by milligrams per gram per day (daily dose normalized by body weight).", "preferredTerm": "Day Times Nanomole Per Liter Per Milligram Per Gram Per Day", "submissionValue": "day*nmol/L/(mg/g/day)"}, {"conceptId": "C112261", "definition": "Days times nanomoles per liter (area under the curve), divided by kilograms (weight) or days times picomoles per liter (area under the curve), divided by grams (weight).", "preferredTerm": "Day Times Nanomole Per Liter Per Kilogram", "submissionValue": "day*nmol/L/kg", "synonyms": ["day*nmol/L/kg", "day*pmol/L/g"]}, {"conceptId": "C111184", "definition": "Days times nanomoles per liter (area under the curve), divided by meters squared (surface area).", "preferredTerm": "Day Times Nanomole per Liter per Meter Squared", "submissionValue": "day*nmol/L/m2"}, {"conceptId": "C85593", "definition": "Days times picograms per milliliter (area under the curve).", "preferredTerm": "Day Times Picogram per Milliliter", "submissionValue": "day*pg/mL"}, {"conceptId": "C111185", "definition": "Days times picograms per milliliter (area under the curve), divided by kilograms per meter squared (body mass index).", "preferredTerm": "Day Times Picogram per Milliliter per Kilogram per Meter Squared", "submissionValue": "day*pg/mL/(kg/m2)"}, {"conceptId": "C117908", "definition": "Days times picograms per milliliter (area under the curve), divided by milligrams per gram (dose normalized by body weight).", "preferredTerm": "Day Times Picogram Per Milliliter Per Milligram Per Gram", "submissionValue": "day*pg/mL/(mg/g)"}, {"conceptId": "C117909", "definition": "Days times picograms per milliliter (area under the curve), divided by milligrams per gram per day (daily dose normalized by body weight).", "preferredTerm": "Day Times Picogram Per Milliliter Per Milligram Per Gram Per Day", "submissionValue": "day*pg/mL/(mg/g/day)"}, {"conceptId": "C111186", "definition": "Days times picograms per milliliter (area under the curve), divided by meters squared (surface area).", "preferredTerm": "Day Times Picogram per Milliliter per Meter Squared", "submissionValue": "day*pg/mL/m2"}, {"conceptId": "C111187", "definition": "Days times picomoles per liter (area under the curve).", "preferredTerm": "Day Times Picomole per Liter", "submissionValue": "day*pmol/L"}, {"conceptId": "C111188", "definition": "Days times picomoles per liter (area under the curve), divided by kilograms per meter squared (body mass index).", "preferredTerm": "Day Times Picomole per Liter per Kilogram per Meter Squared", "submissionValue": "day*pmol/L/(kg/m2)"}, {"conceptId": "C117910", "definition": "Days times picomoles per liter (area under the curve), divided by milligrams per gram (dose normalized by body weight).", "preferredTerm": "Day Times Picomole Per Liter Per Milligram Per Gram", "submissionValue": "day*pmol/L/(mg/g)"}, {"conceptId": "C117911", "definition": "Days times picomoles per liter (area under the curve), divided by milligrams per gram per day (daily dose normalized by body weight).", "preferredTerm": "Day Times Picomole Per Liter Per Milligram Per Gram Per Day", "submissionValue": "day*pmol/L/(mg/g/day)"}, {"conceptId": "C112265", "definition": "Days times picomoles per liter (area under the curve), divided by kilograms (weight).", "preferredTerm": "Day Times Picomole Per Liter Per Kilogram", "submissionValue": "day*pmol/L/kg"}, {"conceptId": "C111189", "definition": "Days times picomoles per liter (area under the curve), divided by meters squared (surface area).", "preferredTerm": "Day Times Picomole per Liter per Meter Squared", "submissionValue": "day*pmol/L/m2"}, {"conceptId": "C85586", "definition": "Days times micrograms per milliliter (area under the curve).", "preferredTerm": "Day Times Microgram per Milliliter", "submissionValue": "day*ug/mL"}, {"conceptId": "C111171", "definition": "Days times micrograms per milliliter (area under the curve), divided by kilograms per meter squared (body mass index).", "preferredTerm": "Day Times Microgram per Milliliter per Kilogram per Meter Squared", "submissionValue": "day*ug/mL/(kg/m2)"}, {"conceptId": "C117912", "definition": "Days times micrograms per milliliter (area under the curve), divided by milligrams per gram (dose normalized by body weight).", "preferredTerm": "Day Times Microgram Per Milliliter Per Milligram Per Gram", "submissionValue": "day*ug/mL/(mg/g)"}, {"conceptId": "C117913", "definition": "Days times micrograms per milliliter (area under the curve), divided by milligrams per gram per day (daily dose normalized by body weight).", "preferredTerm": "Day Times Microgram Per Milliliter Per Milligram Per Gram Per Day", "submissionValue": "day*ug/mL/(mg/g/day)"}, {"conceptId": "C132444", "definition": "Days times micrograms per milliliter (area under the curve), divided by milligrams per kilogram (dose normalized by body weight).", "preferredTerm": "Day Times Microgram per Milliliter Times Kilogram per Milligram", "submissionValue": "day*ug/mL/(mg/kg)"}, {"conceptId": "C112248", "definition": "Days times milligrams per milliliter (area under the curve), divided by kilograms (weight) or days times micrograms per milliliter (area under the curve), divided by grams (weight).", "preferredTerm": "Day Times Microgram Per Milliliter Per Gram", "submissionValue": "day*ug/mL/g", "synonyms": ["day*mg/mL/kg", "day*ug/mL/g"]}, {"conceptId": "C112249", "definition": "Days times micrograms per milliliter (area under the curve), divided by kilograms (weight) or days times nanograms per milliliter (area under the curve), divided by grams (weight).", "preferredTerm": "Day Times Microgram Per Milliliter Per Kilogram", "submissionValue": "day*ug/mL/kg", "synonyms": ["day*ng/mL/g", "day*ug/mL/kg"]}, {"conceptId": "C111172", "definition": "Days times micrograms per milliliter (area under the curve), divided by meters squared (surface area).", "preferredTerm": "Day Times Microgram per Milliliter per Meter Squared", "submissionValue": "day*ug/mL/m2"}, {"conceptId": "C85592", "definition": "Days times micromoles per liter (area under the curve).", "preferredTerm": "Day Times Nanomole per Milliliter", "submissionValue": "day*umol/L"}, {"conceptId": "C111173", "definition": "Days times micromoles per liter (area under the curve), divided by kilograms per meter squared (body mass index).", "preferredTerm": "Day Times Micromole per Liter per Kilogram per Meter Squared", "submissionValue": "day*umol/L/(kg/m2)"}, {"conceptId": "C117914", "definition": "Days times micromoles per liter (area under the curve), divided by milligrams per gram (dose normalized by body weight).", "preferredTerm": "Day Times Micromole Per Liter Per Milligram Per Gram", "submissionValue": "day*umol/L/(mg/g)"}, {"conceptId": "C117915", "definition": "Days times micromoles per liter (area under the curve), divided by milligrams per gram per day (daily dose normalized by body weight).", "preferredTerm": "Day Times Micromole Per Liter Per Milligram Per Gram Per Day", "submissionValue": "day*umol/L/(mg/g/day)"}, {"conceptId": "C112250", "definition": "Days times millimoles per liter (area under the curve), divided by kilograms (weight) or days times micromoles per liter (area under the curve), divided by grams (weight).", "preferredTerm": "Day Times Micromole Per Liter Per Gram", "submissionValue": "day*umol/L/g", "synonyms": ["day*mmol/L/kg", "day*umol/L/g"]}, {"conceptId": "C112251", "definition": "Days times micromoles per liter (area under the curve), divided by kilograms (weight) or days times nanomoles per liter (area under the curve), divided by grams (weight).", "preferredTerm": "Day Times Micromole Per Liter Per Kilogram", "submissionValue": "day*umol/L/kg", "synonyms": ["day*nmol/L/g", "day*umol/L/kg"]}, {"conceptId": "C111174", "definition": "Days times micromoles per liter (area under the curve), divided by meters squared (surface area).", "preferredTerm": "Day Times Micromole per Liter per Meter Squared", "submissionValue": "day*umol/L/m2"}, {"conceptId": "C170632", "definition": "A unit of measurement equal to the number of deoxyribonucleic acid (DNA) copies per unit of mass equal to one microgram.", "preferredTerm": "DNA Copies Per Microgram", "submissionValue": "DNA copies/ug"}, {"conceptId": "C85597", "definition": "A unit of concentration or mass density equal to one femtogram of substance per milliliter of solution or one picogram of substance per liter of solution.", "preferredTerm": "Femtogram per Milliliter", "submissionValue": "fg/mL", "synonyms": ["fg/mL", "pg/L"]}, {"conceptId": "C119336", "definition": "Femtograms per milliliter (concentration), divided by kilograms per meter squared (body mass index).", "preferredTerm": "Femtogram per Milliliter per Kilogram per Meter Squared", "submissionValue": "fg/mL/(kg/m2)"}, {"conceptId": "C119337", "definition": "Femtograms per milliliter (concentration), divided by milligrams per day (daily dose).", "preferredTerm": "Femtogram per Milliliter per Milligram per Day", "submissionValue": "fg/mL/(mg/day)"}, {"conceptId": "C119338", "definition": "Femtograms per milliliter (concentration), divided by milligrams per kilogram (dose normalized by body weight).", "preferredTerm": "Femtogram per Milliliter per Milligram per Kilogram", "submissionValue": "fg/mL/(mg/kg)"}, {"conceptId": "C119339", "definition": "Femtograms per milliliter (concentration), divided by milligrams per kilogram per day (daily dose normalized by body weight).", "preferredTerm": "Femtogram per Milliliter per Milligram per Kilogram per Day", "submissionValue": "fg/mL/(mg/kg/day)"}, {"conceptId": "C119340", "definition": "Femtograms per milliliter (concentration), divided by milligrams per meter squared (dose normalized by surface area).", "preferredTerm": "Femtogram per Milliliter per Milligram per Meter Squared", "submissionValue": "fg/mL/(mg/m2)"}, {"conceptId": "C119341", "definition": "Femtograms per milliliter (concentration), divided by milligrams per meter squared per day (daily dose normalized by surface area).", "preferredTerm": "Femtogram per Milliliter per Milligram per Meter Squared per Day", "submissionValue": "fg/mL/(mg/m2/day)"}, {"conceptId": "C119342", "definition": "Picograms per milliliter (concentration), divided by milligrams per day (daily dose) or femtograms per milliliter (concentration), divided by micrograms per day (daily dose).", "preferredTerm": "Femtogram per Milliliter per Microgram per Day", "submissionValue": "fg/mL/(ug/day)", "synonyms": ["fg/mL/(ug/day)", "pg/mL/(mg/day)"]}, {"conceptId": "C119345", "definition": "Picograms per milliliter (concentration), divided by milligrams per meter squared (dose normalized by surface area) or femtograms per milliliter (concentration), divided by micrograms per meter squared (dose normalized by surface area).", "preferredTerm": "Femtogram per Milliliter per Microgram per Meter Squared", "submissionValue": "fg/mL/(ug/m2)", "synonyms": ["fg/mL/(ug/m2)", "pg/mL/(mg/m2)"]}, {"conceptId": "C119346", "definition": "Picograms per milliliter (concentration), divided by milligrams per meter squared per day (daily dose normalized by surface area) or femtograms per milliliter (concentration), divided by micrograms per meter squared per day (daily dose normalized by surface area).", "preferredTerm": "Femtogram per Milliliter per Microgram per Meter Squared per Day", "submissionValue": "fg/mL/(ug/m2/day)", "synonyms": ["fg/mL/(ug/m2/day)", "pg/mL/(mg/m2/day)"]}, {"conceptId": "C119347", "definition": "Picograms per milliliter (concentration), divided by kilograms (weight) or femtograms per milliliter (concentration), divided by grams (weight).", "preferredTerm": "Femtogram per Milliliter per Gram", "submissionValue": "fg/mL/g", "synonyms": ["fg/mL/g", "pg/mL/kg"]}, {"conceptId": "C119348", "definition": "Femtograms per milliliter (concentration), divided by kilograms (weight).", "preferredTerm": "Femtogram per Milliliter per Kilogram", "submissionValue": "fg/mL/kg"}, {"conceptId": "C119349", "definition": "Femtograms per milliliter (concentration), divided by meters squared (surface area).", "preferredTerm": "Femtogram per Milliliter per Meter Squared", "submissionValue": "fg/mL/m2"}, {"conceptId": "C119351", "definition": "Micrograms per milliliter (concentration), divided by kilograms (weight) or nanograms per milliliter (concentration), divided by grams (weight) or picograms per milliliter (concentration), divided by milligrams (dose) or femtograms per milliliter (concentration), divided by micrograms (dose).", "preferredTerm": "Femtogram per Milliliter per Microgram", "submissionValue": "fg/mL/ug", "synonyms": ["fg/mL/ug", "ng/mL/g", "pg/mL/mg", "ug/mL/kg"]}, {"conceptId": "C105484", "definition": "A unit for expressing a percentage as a decimal whereby the total value is measured as a fraction of the numeric 1.", "preferredTerm": "Fraction of 1", "submissionValue": "fraction of 1", "synonyms": ["Proportion of 1"]}, {"conceptId": "C48155", "definition": "A unit of mass equal to one thousandth (1E-3) of a kilogram, the kilogram being the base unit of mass in the International System of Units (SI).", "preferredTerm": "Gram", "submissionValue": "g", "synonyms": ["Gram"]}, {"conceptId": "C67372", "definition": "A unit of mass flow rate equal to one gram per day.", "preferredTerm": "Gram per 24 Hours", "submissionValue": "g/day", "synonyms": ["g/24h"]}, {"conceptId": "C85601", "definition": "A unit of mass flow rate or dose administration rate equal to one gram per hour.", "preferredTerm": "Gram per Hour", "submissionValue": "g/h"}, {"conceptId": "C85602", "definition": "A unit of mass flow rate or dose administration rate equal to one gram per minute.", "preferredTerm": "Gram per Minute", "submissionValue": "g/min"}, {"conceptId": "C64566", "definition": "A unit of concentration or mass density equal to one gram of substance per milliliter of solution or one kilogram of substance per liter of solution.", "preferredTerm": "Kilogram per Liter", "submissionValue": "g/mL", "synonyms": ["g/mL", "Gram per Milliliter", "gram/mL", "kg/L", "Kilogram per Liter", "mg/uL"]}, {"conceptId": "C119352", "definition": "Grams per milliliter (concentration), divided by kilograms per meter squared (body mass index).", "preferredTerm": "Gram per Milliliter per Kilogram per Meter Squared", "submissionValue": "g/mL/(kg/m2)"}, {"conceptId": "C119353", "definition": "Grams per milliliter (concentration), divided by milligrams per day (daily dose) or milligrams per milliliter (concentration), divided by micrograms per day (daily dose).", "preferredTerm": "Gram per Milliliter per Milligram per Day", "submissionValue": "g/mL/(mg/day)", "synonyms": ["g/mL/(mg/day)", "mg/mL/(ug/day)"]}, {"conceptId": "C105462", "definition": "Grams per milliliter (concentration), divided by milligrams per kilogram (dose normalized by body weight) or milligrams per milliliter (concentration), divided by micrograms per kilogram (dose normalized by body weight).", "preferredTerm": "Gram Per Milliliter Per Milligram Per Kilogram", "submissionValue": "g/mL/(mg/kg)", "synonyms": ["g/mL/(mg/kg)", "mg/mL/(ug/kg)"]}, {"conceptId": "C105463", "definition": "Grams per milliliter (concentration), divided by milligrams per kilogram per day (daily dose normalized by body weight) or milligrams per milliliter (concentration), divided by micrograms per kilogram per day (daily dose normalized by body weight).", "preferredTerm": "Gram Per Milliliter Per Milligram Per Kilogram Per Day", "submissionValue": "g/mL/(mg/kg/day)", "synonyms": ["g/mL/(mg/kg/day)", "mg/mL/(ug/kg/day)"]}, {"conceptId": "C119354", "definition": "Grams per milliliter (concentration), divided by milligrams per meter squared (dose normalized by surface area) or milligrams per milliliter (concentration), divided by micrograms per meter squared (dose normalized by surface area).", "preferredTerm": "Gram per Milliliter per Milligram per Meter Squared", "submissionValue": "g/mL/(mg/m2)", "synonyms": ["g/mL/(mg/m2)", "mg/mL/(ug/m2)"]}, {"conceptId": "C119355", "definition": "Grams per milliliter (concentration), divided by milligrams per meter squared per day (daily dose normalized by surface area) or milligrams per milliliter (concentration), divided by micrograms per meter squared per day (daily dose normalized by surface area).", "preferredTerm": "Gram per Milliliter per Milligram per Meter Squared per Day", "submissionValue": "g/mL/(mg/m2/day)", "synonyms": ["g/mL/(mg/m2/day)", "mg/mL/(ug/m2/day)"]}, {"conceptId": "C119356", "definition": "Grams per milliliter (concentration), divided by micrograms per day (daily dose).", "preferredTerm": "Gram per Milliliter per Microgram per Day", "submissionValue": "g/mL/(ug/day)"}, {"conceptId": "C119357", "definition": "Grams per milliliter (concentration), divided by micrograms per kilogram (dose normalized by body weight).", "preferredTerm": "Gram per Milliliter per Microgram per Kilogram", "submissionValue": "g/mL/(ug/kg)"}, {"conceptId": "C119358", "definition": "Grams per milliliter (concentration), divided by micrograms per kilogram per day (daily dose normalized by body weight).", "preferredTerm": "Gram per Milliliter per Microgram per Kilogram per Day", "submissionValue": "g/mL/(ug/kg/day)"}, {"conceptId": "C119359", "definition": "Grams per milliliter (concentration), divided by micrograms per meter squared (dose normalized by body weight).", "preferredTerm": "Gram per Milliliter per Microgram per Meter Squared", "submissionValue": "g/mL/(ug/m2)"}, {"conceptId": "C119360", "definition": "Grams per milliliter (concentration), divided by micrograms per meter squared per day (daily dose normalized by surface area).", "preferredTerm": "Gram per Milliliter per Microgram per Meter Squared per Day", "submissionValue": "g/mL/(ug/m2/day)"}, {"conceptId": "C119361", "definition": "Grams per milliliter (concentration), divided by grams (weight) or milligrams per milliliter (concentration), divided by milligrams (dose) or micrograms per milliliter (concentration), divided by micrograms (dose).", "preferredTerm": "Gram per Milliliter per Gram", "submissionValue": "g/mL/g", "synonyms": ["g/mL/g", "mg/mL/mg", "ug/mL/ug"]}, {"conceptId": "C119363", "definition": "Grams per milliliter (concentration), divided by meters squared (surface area).", "preferredTerm": "Gram per Milliliter per Meter Squared", "submissionValue": "g/mL/m2"}, {"conceptId": "C119364", "definition": "Grams per milliliter (concentration), divided by milligrams (dose) or milligrams per milliliter (concentration), divided by micrograms (dose).", "preferredTerm": "Gram per Milliliter per Milligram", "submissionValue": "g/mL/mg", "synonyms": ["g/mL/mg", "mg/mL/ug"]}, {"conceptId": "C119365", "definition": "Grams per milliliter (concentration), divided by micrograms (dose).", "preferredTerm": "Gram per Milliliter per Microgram", "submissionValue": "g/mL/ug"}, {"conceptId": "C70513", "definition": "A unit of radioactivity equal to one billion nuclear disintegrations or other nuclear transformations per second, or to 1E9 Becquerels. (NCI)", "preferredTerm": "Gigabecquerel", "submissionValue": "GBq", "synonyms": ["Gigabecquerel"]}, {"conceptId": "C70525", "definition": "A unit of specific radioactivity (massic activity) equal to activity of one gigabecquerel of the sample with total mass of one gram, or equal to activity of one megabecquerel of the sample with total mass of one milligram.", "preferredTerm": "Gigabecquerel per Gram", "submissionValue": "GBq/g", "synonyms": ["GBq/g", "Gigabecquerel per Gram", "kBq/ug", "Kilobecquerel per Microgram", "MBq/mg", "Megabecquerel per Milligram"]}, {"conceptId": "C70527", "definition": "A unit of specific radioactivity (massic activity) equal to activity of one gigabecquerel of the sample with total mass of one milligram.(NCI)", "preferredTerm": "Gigabecquerel per Milligram", "submissionValue": "GBq/mg", "synonyms": ["Gigabecquerel per Milligram", "MBq/mcg", "MBq/ug", "Megabecquerel per Microgram"]}, {"conceptId": "C163553", "definition": "Gigabecquerel per nanoliter.", "preferredTerm": "Gigabecquerel/nL", "submissionValue": "GBq/nL"}, {"conceptId": "C70526", "definition": "A unit of specific radioactivity (massic activity) equal to activity of one gigabecquerel of the sample with total mass of one microgram.(NCI)", "preferredTerm": "Gigabecquerel per Microgram", "submissionValue": "GBq/ug", "synonyms": ["GBq/mcg", "Gigabecquerel per Microgram", "MBq/ng", "Megabecquerel per nanogram"]}, {"conceptId": "C73562", "definition": "Gigabecquerel per microliter.", "preferredTerm": "Gigabecquerel per Microliter", "submissionValue": "GBq/uL"}, {"conceptId": "C25529", "definition": "A unit of measurement of time equal to 60 minutes.", "preferredTerm": "Hour", "submissionValue": "h", "synonyms": ["h", "Hours", "hr"]}, {"conceptId": "C163554", "definition": "Hours times Becquerel per gram (area under the curve).", "preferredTerm": "Hour Times Becquerel per Gram", "submissionValue": "h*Bq/g"}, {"conceptId": "C163555", "definition": "Hours times Becquerel per milliliter (area under the curve).", "preferredTerm": "Hour Times Becquerel per milliliter", "submissionValue": "h*Bq/mL"}, {"conceptId": "C172585", "definition": "Hours times DNA copies per microgram (area under the curve).", "preferredTerm": "Hours Times DNA Copies Per Microgram", "submissionValue": "h*DNA copies/ug"}, {"conceptId": "C85611", "definition": "Hours times femtograms per milliliter (area under the curve).", "preferredTerm": "Hour Times Femtogram per Milliliter", "submissionValue": "h*fg/mL"}, {"conceptId": "C111210", "definition": "Hours times femtograms per milliliter (area under the curve), divided by kilograms per meter squared (body mass index).", "preferredTerm": "Hour Times Femtogram per Milliliter per Kilogram per Meter Squared", "submissionValue": "h*fg/mL/(kg/m2)"}, {"conceptId": "C117916", "definition": "Hours times femtograms per milliliter (area under the curve), divided by milligrams per gram (dose normalized by body weight).", "preferredTerm": "Hour Times Femtogram Per Milliliter Per Milligram Per Gram", "submissionValue": "h*fg/mL/(mg/g)"}, {"conceptId": "C117917", "definition": "Hours times femtograms per milliliter (area under the curve), divided by milligrams per gram per day (daily dose normalized by body weight).", "preferredTerm": "Hour Times Femtogram Per Milliliter Per Milligram Per Gram Per Day", "submissionValue": "h*fg/mL/(mg/g/day)"}, {"conceptId": "C112299", "definition": "Hours times femtograms per milliliter (area under the curve), divided by kilograms (weight).", "preferredTerm": "Hour Times Femtogram Per Milliliter Per Kilogram", "submissionValue": "h*fg/mL/kg"}, {"conceptId": "C111211", "definition": "Hours times femtograms per milliliter (area under the curve), divided by meters squared (surface area).", "preferredTerm": "Hour Times Femtogram per Milliliter per Meter Squared", "submissionValue": "h*fg/mL/m2"}, {"conceptId": "C85613", "definition": "Hours times grams per milliliter (area under the curve).", "preferredTerm": "Hour Times Gram per Milliliter", "submissionValue": "h*g/mL", "synonyms": ["h*kg/L", "h*mg/uL"]}, {"conceptId": "C111212", "definition": "Hours times grams per milliliter (area under the curve), divided by kilograms per meter squared (body mass index).", "preferredTerm": "Hour Times Gram per Milliliter per Kilogram per Meter Squared", "submissionValue": "h*g/mL/(kg/m2)"}, {"conceptId": "C117918", "definition": "Hours times grams per milliliter (area under the curve), divided by milligrams per gram (dose normalized by body weight).", "preferredTerm": "Hour Times gram Per Milliliter Per Milligram Per Gram", "submissionValue": "h*g/mL/(mg/g)"}, {"conceptId": "C117919", "definition": "Hours times grams per milliliter (area under the curve), divided by milligrams per gram per day (daily dose normalized by body weight).", "preferredTerm": "Hour Times gram Per Milliliter Per Milligram Per Gram Per Day", "submissionValue": "h*g/mL/(mg/g/day)"}, {"conceptId": "C105464", "definition": "Hours times grams per milliliter (area under the curve), divided by milligrams per kilogram (dose normalized by body weight).", "preferredTerm": "Hour Times Gram Per Milliliter Per Milligram Per Kilogram", "submissionValue": "h*g/mL/(mg/kg)"}, {"conceptId": "C105465", "definition": "Hours times grams per milliliter (area under the curve), divided by milligrams per kilogram per day (daily dose normalized by body weight).", "preferredTerm": "Hour Times Gram Per Milliliter Per Milligram Per Kilogram Per Day", "submissionValue": "h*g/mL/(mg/kg/day)"}, {"conceptId": "C112300", "definition": "Hours times grams per milliliter (area under the curve), divided by grams (weight).", "preferredTerm": "Hour Times Gram Per Milliliter Per Gram", "submissionValue": "h*g/mL/g"}, {"conceptId": "C111213", "definition": "Hours times grams per milliliter (area under the curve), divided by meters squared (surface area).", "preferredTerm": "Hour Times Gram per Milliliter per Meter Squared", "submissionValue": "h*g/mL/m2"}, {"conceptId": "C85621", "definition": "Hours times milligrams per milliliter (area under the curve).", "preferredTerm": "Hour Times Milligram per Milliliter", "submissionValue": "h*mg/mL"}, {"conceptId": "C111218", "definition": "Hours times milligrams per milliliter (area under the curve), divided by kilograms per meter squared (body mass index).", "preferredTerm": "Hour Times Milligram per Milliliter per Kilogram per Meter Squared", "submissionValue": "h*mg/mL/(kg/m2)"}, {"conceptId": "C117920", "definition": "Hours times milligrams per milliliter (area under the curve), divided by milligrams per gram (dose normalized by body weight).", "preferredTerm": "Hour Times Milligram Per Milliliter Per Milligram Per Gram", "submissionValue": "h*mg/mL/(mg/g)"}, {"conceptId": "C117921", "definition": "Hours times milligrams per milliliter (area under the curve), divided by milligrams per gram per day (daily dose normalized by body weight).", "preferredTerm": "Hour Times Milligram Per Milliliter Per Milligram Per Gram Per Day", "submissionValue": "h*mg/mL/(mg/g/day)"}, {"conceptId": "C105468", "definition": "Hours times milligrams per milliliter (area under the curve), divided by milligrams per kilogram (dose normalized by body weight).", "preferredTerm": "Hour Times Milligram Per Milliliter Per Milligram Per Kilogram", "submissionValue": "h*mg/mL/(mg/kg)"}, {"conceptId": "C105469", "definition": "Hours times milligrams per milliliter (area under the curve), divided by milligrams per kilogram per day (daily dose normalized by body weight).", "preferredTerm": "Hour Times Milligram Per Milliliter Per Milligram Per Kilogram Per Day", "submissionValue": "h*mg/mL/(mg/kg/day)"}, {"conceptId": "C111219", "definition": "Hours times milligrams per milliliter (area under the curve), divided by meters squared (surface area).", "preferredTerm": "Hour Times Milligram per Milliliter per Meter Squared", "submissionValue": "h*mg/mL/m2"}, {"conceptId": "C181522", "definition": "Hours times milli international unit per milliliter (area under the curve).", "preferredTerm": "Hour Times Milli-international Unit per Milliliter", "submissionValue": "h*mIU/mL", "synonyms": ["mIU*h/mL"]}, {"conceptId": "C85618", "definition": "Hours times millimoles per liter (area under the curve).", "preferredTerm": "Hour Times Micromole per Milliliter", "submissionValue": "h*mmol/L"}, {"conceptId": "C111220", "definition": "Hours times millimoles per liter (area under the curve), divided by kilograms per meter squared (body mass index).", "preferredTerm": "Hour Times Millimole per Liter per Kilogram per Meter Squared", "submissionValue": "h*mmol/L/(kg/m2)"}, {"conceptId": "C117922", "definition": "Hours times millimoles per liter (area under the curve), divided by milligrams per gram (dose normalized by body weight).", "preferredTerm": "Hour Times Millimole Per Liter Per Milligram Per Gram", "submissionValue": "h*mmol/L/(mg/g)"}, {"conceptId": "C117923", "definition": "Hours times millimoles per liter (area under the curve), divided by milligrams per gram per day (daily dose normalized by body weight).", "preferredTerm": "Hour Times Millimole Per Liter Per Milligram Per Gram Per Day", "submissionValue": "h*mmol/L/(mg/g/day)"}, {"conceptId": "C106530", "definition": "Hours times moles per liter (area under the curve), divided by kilograms (weight) or hours times millimoles per liter (area under the curve), divided by grams (weight).", "preferredTerm": "Hour times Millimole Per Liter Per Gram", "submissionValue": "h*mmol/L/g", "synonyms": ["h*mmol/L/g", "h*mol/L/kg"]}, {"conceptId": "C112307", "definition": "Hours times millimoles per liter (area under the curve), divided by kilograms (weight); or hours times micromoles per liter (area under the curve), divided by grams (weight); or hours times nanomoles per liter (area under the curve), divided by milligrams (dose); or hours times picomoles per liter (area under the curve), divided by micrograms (dose).", "preferredTerm": "Hour Times Millimole Per Liter Per Kilogram", "submissionValue": "h*mmol/L/kg", "synonyms": ["h*mmol/L/kg", "h*nmol/L/mg", "h*pmol/L/ug", "h*umol/L/g"]}, {"conceptId": "C111221", "definition": "Hours times millimoles per liter (area under the curve), divided by meters squared (surface area).", "preferredTerm": "Hour Times Millimole per Liter per Meter Squared", "submissionValue": "h*mmol/L/m2"}, {"conceptId": "C85622", "definition": "Hours times moles per liter (area under the curve).", "preferredTerm": "Hour Times Millimole per Milliliter", "submissionValue": "h*mol/L"}, {"conceptId": "C111222", "definition": "Hours times moles per liter (area under the curve), divided by kilograms per meter squared (body mass index).", "preferredTerm": "Hour Times Mole per Liter per Kilogram per Meter Squared", "submissionValue": "h*mol/L/(kg/m2)"}, {"conceptId": "C117924", "definition": "Hours times moles per liter (area under the curve), divided by milligrams per gram (dose normalized by body weight).", "preferredTerm": "Hour Times mole Per Liter Per Milligram Per Gram", "submissionValue": "h*mol/L/(mg/g)"}, {"conceptId": "C117925", "definition": "Hours times moles per liter (area under the curve), divided by milligrams per gram per day (daily dose normalized by body weight).", "preferredTerm": "Hour Times mole Per Liter Per Milligram Per Gram Per Day", "submissionValue": "h*mol/L/(mg/g/day)"}, {"conceptId": "C106531", "definition": "Hours times millimoles per liter (area under the curve), divided by kilograms (weight); or hours times micromoles per liter (area under the curve), divided by grams (weight); or hours times nanomoles per liter (area under the curve), divided by milligrams (dose); or hours times picomoles per liter (area under the curve), divided by micrograms (dose).", "preferredTerm": "Hour times Mole Per Liter Per Gram", "submissionValue": "h*mol/L/g", "synonyms": ["h*mmol/L/mg", "h*mol/L/g", "h*umol/L/ug"]}, {"conceptId": "C111223", "definition": "Hours times moles per liter (area under the curve), divided by meters squared (surface area).", "preferredTerm": "Hour Times Mole per Liter per Meter Squared", "submissionValue": "h*mol/L/m2"}, {"conceptId": "C85624", "definition": "Hours times nanograms per milliliter (area under the curve).", "preferredTerm": "Hour Times Nanogram per Milliliter", "submissionValue": "h*ng/mL", "synonyms": ["h*ug/L"]}, {"conceptId": "C111224", "definition": "Hours times nanograms per milliliter (area under the curve), divided by kilograms per meter squared (body mass index).", "preferredTerm": "Hour Times Nanogram per Milliliter per Kilogram per Meter Squared", "submissionValue": "h*ng/mL/(kg/m2)"}, {"conceptId": "C172589", "definition": "Hour times nanograms per milliliter (area under the curve), divided by milligrams per centimeter squared (body mass index).", "preferredTerm": "Hours Times Nanogram Per Milliliter Per Milligram Per Square Centimeter", "submissionValue": "h*ng/mL/(mg/cm2)"}, {"conceptId": "C174356", "definition": "Hours times nanograms per milliliter (area under the curve), divided by milligrams per centimeter squared per day (daily dose normalized by surface area).", "preferredTerm": "Hour Times Nanogram Per Milliliter Per Milligram Per Centimeter Squared Per Day", "submissionValue": "h*ng/mL/(mg/cm2/day)"}, {"conceptId": "C117926", "definition": "Hours times nanograms per milliliter (area under the curve), divided by milligrams per gram (dose normalized by body weight).", "preferredTerm": "Hour Times Nanogram Per Milliliter Per Milligram Per Gram", "submissionValue": "h*ng/mL/(mg/g)"}, {"conceptId": "C117927", "definition": "Hours times nanograms per milliliter (area under the curve), divided by milligrams per gram per day (daily dose normalized by body weight).", "preferredTerm": "Hour Times Nanogram Per Milliliter Per Milligram Per Gram Per Day", "submissionValue": "h*ng/mL/(mg/g/day)"}, {"conceptId": "C85628", "definition": "Hours times nanograms per milliliter (area under the curve), divided by milligrams per kilogram (dose normalized by body weight).", "preferredTerm": "Hour Times Nanogram per Milliliter per Milligram per Kilogram", "submissionValue": "h*ng/mL/(mg/kg)"}, {"conceptId": "C105470", "definition": "Hours times nanograms per milliliter (area under the curve), divided by milligrams per kilogram per day (daily dose normalized by body weight).", "preferredTerm": "Hour Times Nanogram Per Milliliter Per Milligram Per Kilogram Per Day", "submissionValue": "h*ng/mL/(mg/kg/day)"}, {"conceptId": "C85629", "definition": "Hours times nanograms per milliliter (area under the curve), divided by milligrams per meter squared (dose normalized by surface area).", "preferredTerm": "Hour Times Nanogram per Milliliter per Milligram per Meter Squared", "submissionValue": "h*ng/mL/(mg/m2)"}, {"conceptId": "C85625", "definition": "Hours times micrograms per milliliter (area under the curve), divided by kilograms (weight) or hours times nanograms per milliliter (area under the curve), divided by grams (weight) or hours times picograms per milliliter (area under the curve), divided by milligrams (dose).", "preferredTerm": "Hour Times Nanogram per Milliliter per Gram", "submissionValue": "h*ng/mL/g", "synonyms": ["h*ng/mL/g", "h*pg/mL/mg", "h*ug/mL/kg"]}, {"conceptId": "C85626", "definition": "Hours times nanograms per milliliter (area under the curve), divided by kilograms (weight) or hours times picograms per milliliter (area under the curve), divided by grams (weight).", "preferredTerm": "Hour Times Nanogram per Milliliter per Kilogram", "submissionValue": "h*ng/mL/kg", "synonyms": ["h*ng/mL/kg", "h*pg/mL/g"]}, {"conceptId": "C111225", "definition": "Hours times nanograms per milliliter (area under the curve), divided by meters squared (surface area).", "preferredTerm": "Hour Times Nanogram per Milliliter per Meter Squared", "submissionValue": "h*ng/mL/m2"}, {"conceptId": "C85627", "definition": "Hours times milligrams per milliliter (area under the curve), divided by kilograms (weight) or hours times micrograms per milliliter (area under the curve), divided by grams (weight) or hours times nanograms per milliliter (area under the curve), divided by milligrams (dose).", "preferredTerm": "Hour Times Nanogram per Milliliter per Milligram", "submissionValue": "h*ng/mL/mg", "synonyms": ["h*mg/mL/kg", "h*ng/mL/mg", "h*ug/mL/g"]}, {"conceptId": "C166076", "definition": "Hours times nanogram equivalents per milliliter (area under the curve obtained based on radioactivity measurements).", "preferredTerm": "Hour Times Nanogram Equivalents Per Milliliter", "submissionValue": "h*ngEq/mL"}, {"conceptId": "C166077", "definition": "Hours times nanogram equivalents per milliliter (area under the curve obtained based on radioactivity measurements), divided by milligram equivalents (radiolabeled dose).", "preferredTerm": "Hour Times Nanogram Equivalents Per Milliliter Per Milligram Equivalents", "submissionValue": "h*ngEq/mL/mgEq"}, {"conceptId": "C85640", "definition": "Hours times nanomoles per liter (area under the curve).", "preferredTerm": "Hour Times Picomole per Milliliter", "submissionValue": "h*nmol/L"}, {"conceptId": "C111226", "definition": "Hours times nanomoles per liter (area under the curve), divided by kilograms per meter squared (body mass index).", "preferredTerm": "Hour Times Nanomole per Liter per Kilogram per Meter Squared", "submissionValue": "h*nmol/L/(kg/m2)"}, {"conceptId": "C117928", "definition": "Hours times nanomoles per liter (area under the curve), divided by milligrams per gram (dose normalized by body weight).", "preferredTerm": "Hour Times Nanomole Per Liter Per Milligram Per Gram", "submissionValue": "h*nmol/L/(mg/g)"}, {"conceptId": "C117929", "definition": "Hours times nanomoles per liter (area under the curve), divided by milligrams per gram per day (daily dose normalized by body weight).", "preferredTerm": "Hour Times Nanomole Per Liter Per Milligram Per Gram Per Day", "submissionValue": "h*nmol/L/(mg/g/day)"}, {"conceptId": "C132445", "definition": "Hours times nanomoles per liter (area under the curve), divided by milligrams per kilogram (dose normalized by body weight).", "preferredTerm": "Hour Times Nanomole per Liter per Milligram per Kilogram", "submissionValue": "h*nmol/L/(mg/kg)"}, {"conceptId": "C111227", "definition": "Hours times nanomoles per liter (area under the curve), divided by meters squared (surface area).", "preferredTerm": "Hour Times Nanomole per Liter per Meter Squared", "submissionValue": "h*nmol/L/m2"}, {"conceptId": "C85635", "definition": "Hours times picograms per milliliter (area under the curve).", "preferredTerm": "Hour Times Picogram per Milliliter", "submissionValue": "h*pg/mL"}, {"conceptId": "C111228", "definition": "Hours times picograms per milliliter (area under the curve), divided by kilograms per meter squared (body mass index).", "preferredTerm": "Hour Times Picogram per Milliliter per Kilogram per Meter Squared", "submissionValue": "h*pg/mL/(kg/m2)"}, {"conceptId": "C117930", "definition": "Hours times picograms per milliliter (area under the curve), divided by milligrams per gram (dose normalized by body weight).", "preferredTerm": "Hour Times Picogram Per Milliliter Per Milligram Per Gram", "submissionValue": "h*pg/mL/(mg/g)"}, {"conceptId": "C117931", "definition": "Hours times picograms per milliliter (area under the curve), divided by milligrams per gram per day (daily dose normalized by body weight).", "preferredTerm": "Hour Times Picogram Per Milliliter Per Milligram Per Gram Per Day", "submissionValue": "h*pg/mL/(mg/g/day)"}, {"conceptId": "C105471", "definition": "Hours times picograms per milliliter (area under the curve), divided by milligrams per kilogram (dose normalized by body weight).", "preferredTerm": "Hour Times Picogram Per Milliliter Per Milligram Per Kilogram", "submissionValue": "h*pg/mL/(mg/kg)"}, {"conceptId": "C105472", "definition": "Hours times picograms per milliliter (area under the curve), divided by milligrams per kilogram per day (daily dose normalized by body weight).", "preferredTerm": "Hour Times Picogram Per Milliliter Per Milligram Per Kilogram Per Day", "submissionValue": "h*pg/mL/(mg/kg/day)"}, {"conceptId": "C85636", "definition": "Hours times picograms per milliliter (area under the curve), divided by kilograms (weight) or hours times femtograms per milliliter (area under the curve), divided by grams (weight).", "preferredTerm": "Hour Times Picogram per Milliliter per Kilogram", "submissionValue": "h*pg/mL/kg", "synonyms": ["h*fg/mL/g", "h*pg/mL/kg"]}, {"conceptId": "C111229", "definition": "Hours times picograms per milliliter (area under the curve), divided by meters squared (surface area).", "preferredTerm": "Hour Times Picogram per Milliliter per Meter Squared", "submissionValue": "h*pg/mL/m2"}, {"conceptId": "C166078", "definition": "Hours times picogram equivalents per milliliter (area under the curve obtained based on radioactivity measurements).", "preferredTerm": "Hour Times Picogram Equivalents Per Milliliter", "submissionValue": "h*pgEq/mL", "synonyms": ["h*ngEq/L"]}, {"conceptId": "C166079", "definition": "Hours times picogram equivalents per milliliter (area under the curve obtained based on radioactivity measurements), divided by milligram equivalents (radiolabeled dose).", "preferredTerm": "Hour Times Picogram Equivalents Per Milliliter Per Milligram Equivalents", "submissionValue": "h*pgEq/mL/mgEq"}, {"conceptId": "C85612", "definition": "Hours times picomoles per liter (area under the curve).", "preferredTerm": "Hour Times Femtomole per Milliliter", "submissionValue": "h*pmol/L"}, {"conceptId": "C111230", "definition": "Hours times picomoles per liter (area under the curve), divided by kilograms per meter squared (body mass index).", "preferredTerm": "Hour Times Picomole per Liter per Kilogram per Meter Squared", "submissionValue": "h*pmol/L/(kg/m2)"}, {"conceptId": "C117932", "definition": "Hours times picomoles per liter (area under the curve), divided by milligrams per gram (dose normalized by body weight).", "preferredTerm": "Hour Times Picomole Per Liter Per Milligram Per Gram", "submissionValue": "h*pmol/L/(mg/g)"}, {"conceptId": "C117933", "definition": "Hours times picomoles per liter (area under the curve), divided by milligrams per gram per day (daily dose normalized by body weight).", "preferredTerm": "Hour Times Picomole Per Liter Per Milligram Per Gram Per Day", "submissionValue": "h*pmol/L/(mg/g/day)"}, {"conceptId": "C174355", "definition": "Hours times picomoles per liter (area under the curve), divided by milligrams per kilogram (dose normalized by body weight).", "preferredTerm": "Hour Times Picomole Per Liter Per Milligram Per Kilogram", "submissionValue": "h*pmol/L/(mg/kg)"}, {"conceptId": "C106532", "definition": "Hours times nanomoles per liter (area under the curve), divided by kilograms (weight) or hours times picomoles per liter (area under the curve), divided by grams (weight).", "preferredTerm": "Hour times Picomole Per Liter Per Gram", "submissionValue": "h*pmol/L/g", "synonyms": ["h*nmol/L/kg", "h*pmol/L/g"]}, {"conceptId": "C112311", "definition": "Hours times picomoles per liter (area under the curve), divided by kilograms (weight).", "preferredTerm": "Hour Times Picomole Per Liter Per Kilogram", "submissionValue": "h*pmol/L/kg"}, {"conceptId": "C111231", "definition": "Hours times picomoles per liter (area under the curve), divided by meters squared (surface area).", "preferredTerm": "Hour Times Picomole per Liter per Meter Squared", "submissionValue": "h*pmol/L/m2"}, {"conceptId": "C176356", "definition": "Hours times micrograms per gram (area under the curve).", "preferredTerm": "Hour Times Microgram Per Gram", "submissionValue": "h*ug/g", "synonyms": ["h*mg/kg", "h*ng/mg"]}, {"conceptId": "C85615", "definition": "Hours times micrograms per milliliter (area under the curve).", "preferredTerm": "Hour Times Microgram per Milliliter", "submissionValue": "h*ug/mL", "synonyms": ["h*mg/L"]}, {"conceptId": "C111214", "definition": "Hours times micrograms per milliliter (area under the curve), divided by kilograms per meter squared (body mass index).", "preferredTerm": "Hour Times Microgram per Milliliter per Kilogram per Meter Squared", "submissionValue": "h*ug/mL/(kg/m2)"}, {"conceptId": "C117934", "definition": "Hours times micrograms per milliliter (area under the curve), divided by milligrams per gram (dose normalized by body weight).", "preferredTerm": "Hour Times Microgram Per Milliliter Per Milligram Per Gram", "submissionValue": "h*ug/mL/(mg/g)"}, {"conceptId": "C117935", "definition": "Hours times micrograms per milliliter (area under the curve), divided by milligrams per gram per day (daily dose normalized by body weight).", "preferredTerm": "Hour Times Microgram Per Milliliter Per Milligram Per Gram Per Day", "submissionValue": "h*ug/mL/(mg/g/day)"}, {"conceptId": "C105466", "definition": "Hours times micrograms per milliliter (area under the curve), divided by milligrams per kilogram (dose normalized by body weight).", "preferredTerm": "Hour Times Microgram Per Milliliter Per Milligram Per Kilogram", "submissionValue": "h*ug/mL/(mg/kg)"}, {"conceptId": "C105467", "definition": "Hour times nanograms per milliliter (area under the curve), divided by micrograms per kilogram per day (daily dose normalized by body weight), or hour times micrograms per milliliter (area under the curve), divided by milligrams per kilogram per day (daily dose normalized by body weight).", "preferredTerm": "Hour Times Microgram Per Milliliter Per Milligram Per Kilogram Per Day", "submissionValue": "h*ug/mL/(mg/kg/day)", "synonyms": ["h*ng/mL/(ug/kg/day)", "h*ug/mL/(mg/kg/day)"]}, {"conceptId": "C111215", "definition": "Hours times micrograms per milliliter (area under the curve), divided by meters squared (surface area).", "preferredTerm": "Hour Times Microgram per Milliliter per Meter Squared", "submissionValue": "h*ug/mL/m2"}, {"conceptId": "C85617", "definition": "Hours times grams per milliliter (area under the curve), divided by kilograms (weight) or hours times milligrams per milliliter (area under the curve), divided by grams (weight) or hours times micrograms per milliliter (area under the curve), divided by milligrams (dose).", "preferredTerm": "Hour Times Microgram per Milliliter per Milligram", "submissionValue": "h*ug/mL/mg", "synonyms": ["h*g/mL/kg", "h*mg/mL/g", "h*ug/mL/mg"]}, {"conceptId": "C166080", "definition": "Hours times microgram equivalents per milliliter (area under the curve obtained based on radioactivity measurements).", "preferredTerm": "Hour Times Microgram Equivalents Per Milliliter", "submissionValue": "h*ugEq/mL"}, {"conceptId": "C166081", "definition": "Hours times microgram equivalents per milliliter (area under the curve obtained based on radioactivity measurements ), divided by milligram equivalents (radiolabeled dose).", "preferredTerm": "Hour Times Microgram Equivalents Per Milliliter Per Milligram Equivalents", "submissionValue": "h*ugEq/mL/mgEq"}, {"conceptId": "C181521", "definition": "Hours times micro international unit per milliliter (area under the curve).", "preferredTerm": "Hour Times Micro-international Unit per Milliliter", "submissionValue": "h*uIU/mL", "synonyms": ["uIU*h/mL"]}, {"conceptId": "C85632", "definition": "Hours times micromoles per liter (area under the curve).", "preferredTerm": "Hour Times Nanomole per Milliliter", "submissionValue": "h*umol/L"}, {"conceptId": "C111216", "definition": "Hours times micromoles per liter (area under the curve), divided by kilograms per meter squared (body mass index).", "preferredTerm": "Hour Times Micromole per Liter per Kilogram per Meter Squared", "submissionValue": "h*umol/L/(kg/m2)"}, {"conceptId": "C117936", "definition": "Hours times micromoles per liter (area under the curve), divided by milligrams per gram (dose normalized by body weight).", "preferredTerm": "Hour Times Micromole Per Liter Per Milligram Per Gram", "submissionValue": "h*umol/L/(mg/g)"}, {"conceptId": "C117937", "definition": "Hours times micromoles per liter (area under the curve), divided by milligrams per gram per day (daily dose normalized by body weight).", "preferredTerm": "Hour Times Micromole Per Liter Per Milligram Per Gram Per Day", "submissionValue": "h*umol/L/(mg/g/day)"}, {"conceptId": "C132446", "definition": "Hours times micromoles per liter (area under the curve), divided by milligrams per kilogram (dose normalized by body weight).", "preferredTerm": "Hour Times Micromole per Liter per Milligram per Kilogram", "submissionValue": "h*umol/L/(mg/kg)"}, {"conceptId": "C112304", "definition": "Hours times micromoles per liter (area under the curve), divided by kilograms (weight) or hours times nanomoles per liter (area under the curve), divided by grams (weight).", "preferredTerm": "Hour Times Micromole Per Liter Per Kilogram", "submissionValue": "h*umol/L/kg", "synonyms": ["h*nmol/L/g", "h*umol/L/kg"]}, {"conceptId": "C111217", "definition": "Hours times micromoles per liter (area under the curve), divided by meters squared (surface area).", "preferredTerm": "Hour Times Micromole per Liter per Meter Squared", "submissionValue": "h*umol/L/m2"}, {"conceptId": "C172586", "definition": "Hours squared times DNA copies per microgram (area under the moment curve).", "preferredTerm": "Hours Squared Time DNA Copies Per Microgram", "submissionValue": "h2*DNA copies/ug", "synonyms": ["h*h*DNA copies/ug"]}, {"conceptId": "C85606", "definition": "Hours squared times milligrams per milliliter.", "preferredTerm": "Hour Squared Times Milligram per Milliliter", "submissionValue": "h2*mg/mL", "synonyms": ["h*h*mg/mL", "h2*g/L", "h2*ug/uL", "h^2*mg/mL", "mg*h2/mL"]}, {"conceptId": "C85605", "definition": "Hours squared times millimoles per liter (area under the moment curve).", "preferredTerm": "Hour Squared Times Micromole per Milliliter", "submissionValue": "h2*mmol/L"}, {"conceptId": "C85607", "definition": "Hours squared times moles per liter (area under the moment curve).", "preferredTerm": "Hour Squared Times Millimole per Milliliter", "submissionValue": "h2*mol/L"}, {"conceptId": "C85608", "definition": "Hours squared times nanograms per milliliter.", "preferredTerm": "Hour Squared Times Nanogram per Milliliter", "submissionValue": "h2*ng/mL", "synonyms": ["h*h*ng/mL", "h2*ug/L", "h^2*ng/mL", "ng*h2/mL"]}, {"conceptId": "C85610", "definition": "Hours squared times nanomoles per liter (area under the moment curve).", "preferredTerm": "Hour Squared Times Picomole per Milliliter", "submissionValue": "h2*nmol/L"}, {"conceptId": "C85609", "definition": "Hours squared times picogram per milliliter.", "preferredTerm": "Hour Squared Times Picogram per Milliliter", "submissionValue": "h2*pg/mL", "synonyms": ["h*h*pg/mL", "h2*ng/L", "h^2*pg/mL", "pg*h2/mL"]}, {"conceptId": "C106529", "definition": "Hours squared times picomoles per liter (area under the moment curve).", "preferredTerm": "Hour Squared Times Picomole Per Liter", "submissionValue": "h2*pmol/L"}, {"conceptId": "C85604", "definition": "Hours squared times micrograms per milliliter.", "preferredTerm": "Hour Squared Times Microgram per Milliliter", "submissionValue": "h2*ug/mL", "synonyms": ["h*h*ug/mL", "h2*mcg/mL", "h2*mg/L", "h^2*ug/mL", "ug*h2/mL"]}, {"conceptId": "C106528", "definition": "Hours squared times micromoles per liter (area under the moment curve).", "preferredTerm": "Hour Squared Times Micromole Per Liter", "submissionValue": "h2*umol/L"}, {"conceptId": "C48579", "definition": "The unitage assigned by the WHO (World Health Organization) to International Biological Standards - substances, classed as biological according to the criteria provided by WHO Expert Committee on Biological Standardization, to enable the results of biological and immunological assay procedures to be expressed in the same way throughout the world. The definition of an international unit is generally arbitrary and technical, and has to be officially approved by the International Conference for Unification of Formulae.(NCI)", "preferredTerm": "International Unit", "submissionValue": "IU", "synonyms": ["IE", "International Unit"]}, {"conceptId": "C85645", "definition": "A unit of substance (biologic activity) flow rate equal to one international unit per day.", "preferredTerm": "International Unit per Day", "submissionValue": "IU/day"}, {"conceptId": "C85646", "definition": "A unit of substance (biologic activity) flow rate equal to one international unit per hour.", "preferredTerm": "International Unit per Hour", "submissionValue": "IU/h", "synonyms": ["IU/h"]}, {"conceptId": "C85647", "definition": "A unit of substance (biologic activity) flow rate equal to one international unit per minute.", "preferredTerm": "International Unit per Minute", "submissionValue": "IU/min", "synonyms": ["IU/min"]}, {"conceptId": "C67377", "definition": "A unit of concentration (biologic activity) equal to one international unit of substance per milliliter of solution.", "preferredTerm": "International Unit per Milliliter", "submissionValue": "IU/mL", "synonyms": ["IE/mL", "International Unit per Milliliter", "Kilo International Unit per Liter", "kIU/L"]}, {"conceptId": "C119366", "definition": "International units per milliliter (concentration), divided by kilograms per meter squared (body mass index).", "preferredTerm": "International Unit per Milliliter per Kilogram per Meter Squared", "submissionValue": "IU/mL/(kg/m2)"}, {"conceptId": "C119367", "definition": "International units per milliliter (concentration), divided by milligrams per day (daily dose) or milli-international units per milliliter (concentration), divided by micrograms per day (daily dose).", "preferredTerm": "International Unit per Milliliter per Milligram per Day", "submissionValue": "IU/mL/(mg/day)", "synonyms": ["IU/mL/(mg/day)", "mIU/mL/(ug/day)"]}, {"conceptId": "C119368", "definition": "International units per milliliter (concentration), divided by milligrams per kilogram (dose normalized by body weight) or milli-international units per milliliter (concentration), divided by micrograms per kilogram (dose normalized by body weight).", "preferredTerm": "International Unit per Milliliter per Milligram per Kilogram", "submissionValue": "IU/mL/(mg/kg)", "synonyms": ["IU/mL/(mg/kg)", "mIU/mL/(ug/kg)"]}, {"conceptId": "C119369", "definition": "International units per milliliter (concentration), divided by milligrams per kilogram per day (daily dose normalized by body weight) or milli-international units per milliliter (concentration), divided by micrograms per kilogram per day (daily dose normalized by body weight).", "preferredTerm": "International Unit per Milliliter per Milligram per Kilogram per Day", "submissionValue": "IU/mL/(mg/kg/day)", "synonyms": ["IU/mL/(mg/kg/day)", "mIU/mL/(ug/kg/day)"]}, {"conceptId": "C119370", "definition": "International units per milliliter (concentration), divided by milligrams per meter squared (dose normalized by surface area) or milli-international units per milliliter (concentration), divided by micrograms per meter squared (dose normalized by surface area).", "preferredTerm": "International Unit per Milliliter per Milligram per Meter Squared", "submissionValue": "IU/mL/(mg/m2)", "synonyms": ["IU/mL/(mg/m2)", "mIU/mL/(ug/m2)"]}, {"conceptId": "C119371", "definition": "International units per milliliter (concentration), divided by milligrams per meter squared per day (daily dose normalized by surface area) or milli-international units per milliliter (concentration), divided by micrograms per meter squared per day (daily dose normalized by surface area).", "preferredTerm": "International Unit per Milliliter per Milligram per Meter Squared per Day", "submissionValue": "IU/mL/(mg/m2/day)", "synonyms": ["IU/mL/(mg/m2/day)", "mIU/mL/(ug/m2/day)"]}, {"conceptId": "C119372", "definition": "International units per milliliter (concentration), divided by micrograms per day (daily dose).", "preferredTerm": "International Unit per Milliliter per Microgram per Day", "submissionValue": "IU/mL/(ug/day)"}, {"conceptId": "C119373", "definition": "International units per milliliter (concentration), divided by micrograms per kilogram (dose normalized by body weight).", "preferredTerm": "International Unit per Milliliter per Microgram per Kilogram", "submissionValue": "IU/mL/(ug/kg)"}, {"conceptId": "C119374", "definition": "International units per milliliter (concentration), divided by micrograms per kilogram per day (daily dose normalized by body weight).", "preferredTerm": "International Unit per Milliliter per Microgram per Kilogram per Day", "submissionValue": "IU/mL/(ug/kg/day)"}, {"conceptId": "C119375", "definition": "International units per milliliter (concentration), divided by micrograms per meter squared (dose normalized by surface area).", "preferredTerm": "International Unit per Milliliter per Microgram per Meter Squared", "submissionValue": "IU/mL/(ug/m2)"}, {"conceptId": "C119376", "definition": "International units per milliliter (concentration), divided by micrograms per meter squared per day (daily dose normalized by surface area).", "preferredTerm": "International Unit per Milliliter per Microgram per Meter Squared per Day", "submissionValue": "IU/mL/(ug/m2/day)"}, {"conceptId": "C119377", "definition": "International units per milliliter (concentration), divided by grams (weight) or milli-international units per milliliter (concentration), divided by milligrams (dose) or micro-international units per milliliter (concentration), divided by micrograms (dose).", "preferredTerm": "International Unit per Milliliter per Gram", "submissionValue": "IU/mL/g", "synonyms": ["IU/mL/g", "mIU/mL/mg", "uIU/mL/ug"]}, {"conceptId": "C119378", "definition": "International units per milliliter (concentration), divided by kilograms (weight) or milli-international units per milliliter (concentration), divided by grams (weight) or micro-international units per milliliter (concentration), divided by milligrams (dose).", "preferredTerm": "International Unit per Milliliter per Kilogram", "submissionValue": "IU/mL/kg", "synonyms": ["IU/mL/kg", "mIU/mL/g", "uIU/mL/mg"]}, {"conceptId": "C119379", "definition": "International units per milliliter (concentration), divided by meters squared (surface area).", "preferredTerm": "International Unit per Milliliter per Meter Squared", "submissionValue": "IU/mL/m2"}, {"conceptId": "C119380", "definition": "International units per milliliter (concentration), divided by milligrams (dose) or milli-international units per milliliter (concentration), divided by micrograms (dose).", "preferredTerm": "International Unit per Milliliter per Milligram", "submissionValue": "IU/mL/mg", "synonyms": ["IU/mL/mg", "mIU/mL/ug"]}, {"conceptId": "C119381", "definition": "International units per milliliter (concentration), divided by micrograms (dose).", "preferredTerm": "International Unit per Milliliter per Microgram", "submissionValue": "IU/mL/ug"}, {"conceptId": "C70511", "definition": "A unit of radioactivity equal to one thousand nuclear disintegrations or other nuclear transformations per second, or to 1E3 Becquerels. (NCI)", "preferredTerm": "Kilobecquerel", "submissionValue": "kBq", "synonyms": ["Kilobecquerel"]}, {"conceptId": "C71168", "definition": "A unit of volumetric radioactivity concentration defined as a concentration of a radionuclide with an activity equal to one thousand Becquerels per unit volume equal to one millionth of a liter.(NCI)", "preferredTerm": "Kilobecquerel per Microliter", "submissionValue": "kBq/uL", "synonyms": ["GBq/L", "Gigabecquerel per Liter", "Kilobecquerel per Microliter", "MBq/mL", "Megabecquerel per Milliliter"]}, {"conceptId": "C48505", "definition": "A unit of volume equal to one thousandth (1E-3) of a cubic meter, the cubic meter being the standard derived unit of volume in the International System of Units (SI).", "preferredTerm": "Liter", "submissionValue": "L", "synonyms": ["Liter"]}, {"conceptId": "C120806", "definition": "Liters (volume), divided by kilograms per meter squared (body mass index).", "preferredTerm": "Liter per Kilogram per Meter Squared", "submissionValue": "L/(kg/m2)"}, {"conceptId": "C123561", "definition": "Liters (volume), divided by milligrams per day (daily dose).", "preferredTerm": "Liter Divided by Milligram Per Day", "submissionValue": "L/(mg/day)", "synonyms": ["mL/(ug/day)"]}, {"conceptId": "C120807", "definition": "Liters (volume), divided by milligrams per kilogram (dose normalized by body weight).", "preferredTerm": "Liter per Milligram per Kilogram", "submissionValue": "L/(mg/kg)"}, {"conceptId": "C120808", "definition": "Liters (volume), divided by milligrams per kilogram per day (daily dose normalized by body weight) or milliliters (volume), divided by micrograms per kilogram per day (daily dose normalized by body weight).", "preferredTerm": "Liter per Milligram per Kilogram per Day", "submissionValue": "L/(mg/kg/day)", "synonyms": ["L/(mg/kg/day)", "mL/(ug/kg/day)"]}, {"conceptId": "C123562", "definition": "Liters (volume), divided by milligrams per meter squared (dose normalized by surface area).", "preferredTerm": "Liter Divided by Milligram per Meter Squared", "submissionValue": "L/(mg/m2)", "synonyms": ["mL/(ug/m2)"]}, {"conceptId": "C120809", "definition": "Liters (volume), divided by milligrams per meter squared per day (daily dose normalized by surface area) or milliliters (volume), divided by micrograms per meter squared per day (daily dose normalized by surface area).", "preferredTerm": "Liter per Milligram per Meter Squared per Day", "submissionValue": "L/(mg/m2/day)", "synonyms": ["L/(mg/m2/day)", "mL/(ug/m2/day)"]}, {"conceptId": "C123563", "definition": "Liters (volume), divided by micrograms per day (daily dose).", "preferredTerm": "Liter Divided by Microgram per Day", "submissionValue": "L/(ug/day)"}, {"conceptId": "C120810", "definition": "Liters (volume), divided by micrograms per kilogram (dose normalized by body weight).", "preferredTerm": "Liter per Microgram per Kilogram", "submissionValue": "L/(ug/kg)"}, {"conceptId": "C120811", "definition": "Liters (volume), divided by micrograms per kilogram per day (daily dose normalized by body weight).", "preferredTerm": "Liter per Microgram per Kilogram per Day", "submissionValue": "L/(ug/kg/day)"}, {"conceptId": "C120812", "definition": "Liters (volume), divided by micrograms per meter squared (dose normalized by surface area).", "preferredTerm": "Liter per Microgram per Meter Squared", "submissionValue": "L/(ug/m2)"}, {"conceptId": "C120813", "definition": "Liters (volume), divided by micrograms per meter squared per day (daily dose normalized by surface area).", "preferredTerm": "Liter per Microgram per Meter Squared per Day", "submissionValue": "L/(ug/m2/day)"}, {"conceptId": "C69110", "definition": "A unit of flow rate equal to one liter per day.", "preferredTerm": "Liter per Day", "submissionValue": "L/day"}, {"conceptId": "C42577", "definition": "Liters (volume), divided by grams (weight) or milliliters (volume), divided by milligrams (dose).", "preferredTerm": "Cubic Meter per Kilogram", "submissionValue": "L/g", "synonyms": ["mL/mg"]}, {"conceptId": "C69160", "definition": "A unit of flow rate equal to one liter per hour.", "preferredTerm": "Liter per Hour", "submissionValue": "L/h"}, {"conceptId": "C73725", "definition": "Liters (volume) divided by kilograms (weight) or milliliters (volume), divided by grams (weight).", "preferredTerm": "Liter per Kilogram", "submissionValue": "L/kg", "synonyms": ["L/kg", "mL/g"]}, {"conceptId": "C120814", "definition": "Liters (volume), divided by meters squared (surface area).", "preferredTerm": "Liter per Meter Squared", "submissionValue": "L/m2"}, {"conceptId": "C124417", "definition": "Liters (volume), divided by milligrams (dose) or milliliters (volume), divided by micrograms (dose).", "preferredTerm": "Liter per Milligram", "submissionValue": "L/mg", "synonyms": ["L/mg", "mL/ug"]}, {"conceptId": "C67388", "definition": "A unit of flow rate equal to one liter per minute.", "preferredTerm": "Liter per Minute", "submissionValue": "L/min"}, {"conceptId": "C120815", "definition": "Liters (volume), divided by micrograms (dose).", "preferredTerm": "Liter per Microgram", "submissionValue": "L/ug"}, {"conceptId": "C70512", "definition": "A unit of radioactivity equal to one million nuclear disintegrations or other nuclear transformations per second, or to 1E6 Becquerels. (NCI)", "preferredTerm": "Megabecquerel", "submissionValue": "MBq", "synonyms": ["Megabecquerel"]}, {"conceptId": "C71169", "definition": "A unit of volumetric radioactivity concentration defined as a concentration of a radionuclide with an activity equal to one million Becquerels per unit volume equal to one millionth of a liter, or defined as a concentration of a radionuclide with an activity equal to one billion Becquerels per unit volume equal to one thousandth of a liter.", "preferredTerm": "Megabecquerel per Microliter", "submissionValue": "MBq/uL", "synonyms": ["GBq/mL", "Gigabecquerel per Milliliter", "MBq/uL", "Megabecquerel per Microliter"]}, {"conceptId": "C28253", "definition": "A unit of mass equal to one thousandth (1E-3) of a gram.", "preferredTerm": "Milligram", "submissionValue": "mg", "synonyms": ["Milligram"]}, {"conceptId": "C67399", "definition": "A unit of mass flow rate equal to one milligram per day.", "preferredTerm": "Milligram per 24 Hours", "submissionValue": "mg/day"}, {"conceptId": "C67015", "definition": "A unit of mass concentration defined as the concentration of one milligram of a substance in unit volume of the mixture equal to one cubic deciliter or 100 cubic centimeters. It is also a unit of mass density (volumic mass) defined as the density of substance which mass equal to one milligram occupies the volume one cubic deciliter or 100 cubic centimeters.(NCI)", "preferredTerm": "Milligram per Deciliter", "submissionValue": "mg/dL", "synonyms": ["mg%", "Milligram per Deciliter"]}, {"conceptId": "C66969", "definition": "A unit of mass flow rate equal to one milligram per hour.", "preferredTerm": "Milligram per Hour", "submissionValue": "mg/h"}, {"conceptId": "C67401", "definition": "Milligrams (weight), divided by kilograms (weight) or nanograms (weight) per milligrams (weight).", "preferredTerm": "Milligram per Kilogram", "submissionValue": "mg/kg", "synonyms": ["Milligram per Kilogram", "Nanogram per Milligram", "ng/mg", "ug/g"]}, {"conceptId": "C66976", "definition": "A dose calculation unit expressed in milligram(s) per kilogram per period of time equal to twenty-four hours. (NCI)", "preferredTerm": "Milligram per Kilogram per Day", "submissionValue": "mg/kg/day", "synonyms": ["Milligram per Kilogram per Day"]}, {"conceptId": "C73742", "definition": "A unit of mass flow rate equal to one milligram per minute.", "preferredTerm": "Milligram per Minute", "submissionValue": "mg/min"}, {"conceptId": "C42576", "definition": "A unit of concentration or mass density equal to one milligram of substance per milliliter of solution or one gram of substance per liter of solution.", "preferredTerm": "Kilogram per Cubic Meter", "submissionValue": "mg/mL", "synonyms": ["g/L", "Gram per Liter", "kg/m3", "Kilogram per Cubic Meter", "mg/mL", "Microgram per Microliter", "Milligram per Milliliter", "ug/uL"]}, {"conceptId": "C119382", "definition": "Milligrams per milliliter (concentration), divided by kilograms per meter squared (body mass index).", "preferredTerm": "Milligram per Milliliter per Kilogram per Meter Squared", "submissionValue": "mg/mL/(kg/m2)"}, {"conceptId": "C119383", "definition": "Milligrams per milliliter (concentration), divided by milligrams per day (daily dose) or micrograms per milliliter (concentration), divided by micrograms per day (daily dose).", "preferredTerm": "Milligram per Milliliter per Milligram per Day", "submissionValue": "mg/mL/(mg/day)", "synonyms": ["mg/mL/(mg/day)", "ug/mL/(ug/day)"]}, {"conceptId": "C105475", "definition": "Milligrams per milliliter (concentration), divided by milligrams per kilogram (dose normalized by body weight) or micrograms per milliliter (concentration), divided by micrograms per kilogram (dose normalized by body weight).", "preferredTerm": "Milligram Per Milliliter Per Milligram Per Kilogram", "submissionValue": "mg/mL/(mg/kg)", "synonyms": ["mg/mL/(mg/kg)", "ug/mL/(ug/kg)"]}, {"conceptId": "C105476", "definition": "Milligrams per milliliter (concentration), divided by milligrams per kilogram per day (daily dose normalized by body weight) or micrograms per milliliter (concentration), divided by micrograms per kilogram per day (daily dose normalized by body weight).", "preferredTerm": "Milligram Per Milliliter Per Milligram Per Kilogram Per Day", "submissionValue": "mg/mL/(mg/kg/day)", "synonyms": ["mg/mL/(mg/kg/day)", "ug/mL/(ug/kg/day)"]}, {"conceptId": "C119384", "definition": "Milligrams per milliliter (concentration), divided by milligrams per meter squared (dose normalized by surface area) or micrograms per milliliter (concentration), divided by micrograms per meter squared (dose normalized by surface area).", "preferredTerm": "Milligram per Milliliter per Milligram per Meter Squared", "submissionValue": "mg/mL/(mg/m2)", "synonyms": ["mg/mL/(mg/m2)", "ug/mL/(ug/m2)"]}, {"conceptId": "C119385", "definition": "Milligrams per milliliter (concentration), divided by milligrams per meter squared per day (daily dose normalized by surface area) or micrograms per milliliter (concentration), divided by micrograms per meter squared per day (daily dose normalized by surface area).", "preferredTerm": "Milligram per Milliliter per Milligram per Meter Squared per Day", "submissionValue": "mg/mL/(mg/m2/day)", "synonyms": ["mg/mL/(mg/m2/day)", "ug/mL/(ug/m2/day)"]}, {"conceptId": "C119393", "definition": "Milligrams per milliliter (concentration), divided by meters squared (surface area).", "preferredTerm": "Milligram per Milliliter per Meter Squared", "submissionValue": "mg/mL/m2"}, {"conceptId": "C156468", "definition": "A unit of relative amount of substance equal to one thousandth of a gram of an equivalent weight.", "preferredTerm": "Milligram Equivalent", "submissionValue": "mgEq", "synonyms": ["Milligram Equivalent"]}, {"conceptId": "C48154", "definition": "A unit of measurement of time equal to 60 seconds.", "preferredTerm": "Minute", "submissionValue": "min", "synonyms": ["Minute"]}, {"conceptId": "C85724", "definition": "Minutes times femtograms per milliliter (area under the curve).", "preferredTerm": "Minute Times Femtogram per Milliliter", "submissionValue": "min*fg/mL"}, {"conceptId": "C111254", "definition": "Minutes times femtograms per milliliter (area under the curve), divided by kilograms per meter squared (body mass index).", "preferredTerm": "Minute Times Femtogram per Milliliter per Kilogram per Meter Squared", "submissionValue": "min*fg/mL/(kg/m2)"}, {"conceptId": "C117938", "definition": "Minutes times femtograms per milliliter (area under the curve), divided by milligrams per gram (dose normalized by body weight).", "preferredTerm": "Minute Times Femtogram Per Milliliter Per Milligram Per Gram", "submissionValue": "min*fg/mL/(mg/g)"}, {"conceptId": "C117939", "definition": "Minutes times femtograms per milliliter (area under the curve), divided by milligrams per gram per day (daily dose normalized by body weight).", "preferredTerm": "Minute Times Femtogram Per Milliliter Per Milligram Per Gram Per Day", "submissionValue": "min*fg/mL/(mg/g/day)"}, {"conceptId": "C112334", "definition": "Minutes times picograms per milliliter (area under the curve), divided by kilograms (weight) or minutes times femtograms per milliliter (area under the curve), divided by grams (weight).", "preferredTerm": "Minute Times Femtogram Per Milliliter Per Gram", "submissionValue": "min*fg/mL/g", "synonyms": ["min*fg/mL/g", "min*pg/mL/kg"]}, {"conceptId": "C112335", "definition": "Minutes times femtograms per milliliter (area under the curve), divided by kilograms (weight).", "preferredTerm": "Minute Times Femtogram Per Milliliter Per Kilogram", "submissionValue": "min*fg/mL/kg"}, {"conceptId": "C111255", "definition": "Minutes times femtograms per milliliter (area under the curve), divided by meters squared (surface area).", "preferredTerm": "Minute Times Femtogram per Milliliter per Meter Squared", "submissionValue": "min*fg/mL/m2"}, {"conceptId": "C85725", "definition": "Minutes times grams per milliliter (area under the curve).", "preferredTerm": "Minute Times Gram per Milliliter", "submissionValue": "min*g/mL"}, {"conceptId": "C111256", "definition": "Minutes times grams per milliliter (area under the curve), divided by kilograms per meter squared (body mass index).", "preferredTerm": "Minute Times Gram per Milliliter per Kilogram per Meter Squared", "submissionValue": "min*g/mL/(kg/m2)"}, {"conceptId": "C117940", "definition": "Minutes times grams per milliliter (area under the curve), divided by milligrams per gram (dose normalized by body weight).", "preferredTerm": "Minute Times gram Per Milliliter Per Milligram Per Gram", "submissionValue": "min*g/mL/(mg/g)"}, {"conceptId": "C117941", "definition": "Minutes times grams per milliliter (area under the curve), divided by milligrams per gram per day (daily dose normalized by body weight).", "preferredTerm": "Minute Times gram Per Milliliter Per Milligram Per Gram Per Day", "submissionValue": "min*g/mL/(mg/g/day)"}, {"conceptId": "C112336", "definition": "Minutes times grams per milliliter (area under the curve), divided by grams (weight).", "preferredTerm": "Minute Times Gram Per Milliliter Per Gram", "submissionValue": "min*g/mL/g"}, {"conceptId": "C112337", "definition": "Minutes times grams per milliliter (area under the curve), divided by kilograms (weight) or minutes times milligrams per milliliter (area under the curve), divided by grams (weight).", "preferredTerm": "Minute Times Gram Per Milliliter Per Kilogram", "submissionValue": "min*g/mL/kg", "synonyms": ["min*g/mL/kg", "min*mg/mL/g"]}, {"conceptId": "C111257", "definition": "Minutes times grams per milliliter (area under the curve), divided by meters squared (surface area).", "preferredTerm": "Minute Times Gram per Milliliter per Meter Squared", "submissionValue": "min*g/mL/m2"}, {"conceptId": "C85729", "definition": "Minutes times milligrams per milliliter (area under the curve).", "preferredTerm": "Minute Times Milligram per Milliliter", "submissionValue": "min*mg/mL"}, {"conceptId": "C111262", "definition": "Minutes times milligrams per milliliter (area under the curve), divided by kilograms per meter squared (body mass index).", "preferredTerm": "Minute Times Milligram per Milliliter per Kilogram per Meter Squared", "submissionValue": "min*mg/mL/(kg/m2)"}, {"conceptId": "C117942", "definition": "Minutes times milligrams per milliliter (area under the curve), divided by milligrams per gram (dose normalized by body weight).", "preferredTerm": "Minute Times Milligram Per Milliliter Per Milligram Per Gram", "submissionValue": "min*mg/mL/(mg/g)"}, {"conceptId": "C117943", "definition": "Minutes times milligrams per milliliter (area under the curve), divided by milligrams per gram per day (daily dose normalized by body weight).", "preferredTerm": "Minute Times Milligram Per Milliliter Per Milligram Per Gram Per Day", "submissionValue": "min*mg/mL/(mg/g/day)"}, {"conceptId": "C111263", "definition": "Minutes times milligrams per milliliter (area under the curve), divided by meters squared (surface area).", "preferredTerm": "Minute Times Milligram per Milliliter per Meter Squared", "submissionValue": "min*mg/mL/m2"}, {"conceptId": "C85728", "definition": "Minutes times millimoles per liter (area under the curve).", "preferredTerm": "Minute Times Micromole per Milliliter", "submissionValue": "min*mmol/L"}, {"conceptId": "C111264", "definition": "Minutes times millimoles per liter (area under the curve), divided by kilograms per meter squared (body mass index).", "preferredTerm": "Minute Times Millimole per Liter per Kilogram per Meter Squared", "submissionValue": "min*mmol/L/(kg/m2)"}, {"conceptId": "C117944", "definition": "Minutes times millimoles per liter (area under the curve), divided by milligrams per gram (dose normalized by body weight).", "preferredTerm": "Minute Times Millimole Per Liter Per Milligram Per Gram", "submissionValue": "min*mmol/L/(mg/g)"}, {"conceptId": "C117945", "definition": "Minutes times millimoles per liter (area under the curve), divided by milligrams per gram per day (daily dose normalized by body weight).", "preferredTerm": "Minute Times Millimole Per Liter Per Milligram Per Gram Per Day", "submissionValue": "min*mmol/L/(mg/g/day)"}, {"conceptId": "C112344", "definition": "Minutes times moles per liter (area under the curve), divided by kilograms (weight) or minutes times millimoles per liter (area under the curve), divided by grams (weight).", "preferredTerm": "Minute Times Millimole Per Liter Per Gram", "submissionValue": "min*mmol/L/g", "synonyms": ["min*mmol/L/g", "min*mol/L/kg"]}, {"conceptId": "C111265", "definition": "Minutes times millimoles per liter (area under the curve), divided by meters squared (surface area).", "preferredTerm": "Minute Times Millimole per Liter per Meter Squared", "submissionValue": "min*mmol/L/m2"}, {"conceptId": "C85730", "definition": "Minutes times moles per liter (area under the curve).", "preferredTerm": "Minute Times Millimole per Milliliter", "submissionValue": "min*mol/L"}, {"conceptId": "C111266", "definition": "Minutes times moles per liter (area under the curve), divided by kilograms per meter squared (body mass index).", "preferredTerm": "Minute Times Mole per Liter per Kilogram per Meter Squared", "submissionValue": "min*mol/L/(kg/m2)"}, {"conceptId": "C117946", "definition": "Minutes times moles per liter (area under the curve), divided by milligrams per gram (dose normalized by body weight).", "preferredTerm": "Minute Times mole Per Liter Per Milligram Per Gram", "submissionValue": "min*mol/L/(mg/g)"}, {"conceptId": "C117947", "definition": "Minutes times moles per liter (area under the curve), divided by milligrams per gram per day (daily dose normalized by body weight).", "preferredTerm": "Minute Times mole Per Liter Per Milligram Per Gram Per Day", "submissionValue": "min*mol/L/(mg/g/day)"}, {"conceptId": "C112346", "definition": "Minutes times moles per liter (area under the curve), divided by grams (weight).", "preferredTerm": "Minute Times Mole Per Liter Per Gram", "submissionValue": "min*mol/L/g"}, {"conceptId": "C111267", "definition": "Minutes times moles per liter (area under the curve), divided by meters squared (surface area).", "preferredTerm": "Minute Times Mole per Liter per Meter Squared", "submissionValue": "min*mol/L/m2"}, {"conceptId": "C85732", "definition": "Minutes times nanograms per milliliter (area under the curve).", "preferredTerm": "Minute Times Nanogram per Milliliter", "submissionValue": "min*ng/mL"}, {"conceptId": "C111268", "definition": "Minutes times nanograms per milliliter (area under the curve), divided by kilograms per meter squared (body mass index).", "preferredTerm": "Minute Times Nanogram per Milliliter per Kilogram per Meter Squared", "submissionValue": "min*ng/mL/(kg/m2)"}, {"conceptId": "C117948", "definition": "Minutes times nanograms per milliliter (area under the curve), divided by milligrams per gram (dose normalized by body weight).", "preferredTerm": "Minute Times Nanogram Per Milliliter Per Milligram Per Gram", "submissionValue": "min*ng/mL/(mg/g)"}, {"conceptId": "C117949", "definition": "Minutes times nanograms per milliliter (area under the curve), divided by milligrams per gram per day (daily dose normalized by body weight).", "preferredTerm": "Minute Times Nanogram Per Milliliter Per Milligram Per Gram Per Day", "submissionValue": "min*ng/mL/(mg/g/day)"}, {"conceptId": "C112349", "definition": "Minutes times nanograms per milliliter (area under the curve), divided by kilograms (weight) or minutes times picograms per milliliter (area under the curve), divided by grams (weight).", "preferredTerm": "Minute Times Nanogram Per Milliliter Per Kilogram", "submissionValue": "min*ng/mL/kg", "synonyms": ["min*ng/mL/kg", "min*pg/mL/g"]}, {"conceptId": "C111269", "definition": "Minutes times nanograms per milliliter (area under the curve), divided by meters squared (surface area).", "preferredTerm": "Minute Times Nanogram per Milliliter per Meter Squared", "submissionValue": "min*ng/mL/m2"}, {"conceptId": "C85735", "definition": "Minutes times nanomoles per liter (area under the curve).", "preferredTerm": "Minute Times Picomole per Milliliter", "submissionValue": "min*nmol/L"}, {"conceptId": "C111270", "definition": "Minutes times nanomoles per liter (area under the curve), divided by kilograms per meter squared (body mass index).", "preferredTerm": "Minute Times Nanomole per Liter per Kilogram per Meter Squared", "submissionValue": "min*nmol/L/(kg/m2)"}, {"conceptId": "C117950", "definition": "Minutes times nanomoles per liter (area under the curve), divided by milligrams per gram (dose normalized by body weight).", "preferredTerm": "Minute Times Nanomole Per Liter Per Milligram Per Gram", "submissionValue": "min*nmol/L/(mg/g)"}, {"conceptId": "C117951", "definition": "Minutes times nanomoles per liter (area under the curve), divided by milligrams per gram per day (daily dose normalized by body weight).", "preferredTerm": "Minute Times Nanomole Per Liter Per Milligram Per Gram Per Day", "submissionValue": "min*nmol/L/(mg/g/day)"}, {"conceptId": "C112351", "definition": "Minutes times nanomoles per liter (area under the curve), divided by kilograms (weight) or minutes times picomoles per liter (area under the curve), divided by grams (weight).", "preferredTerm": "Minute Times Nanomole Per Liter Per Kilogram", "submissionValue": "min*nmol/L/kg", "synonyms": ["min*nmol/L/kg", "min*pmol/L/g"]}, {"conceptId": "C111271", "definition": "Minutes times nanomoles per liter (area under the curve), divided by meters squared (surface area).", "preferredTerm": "Minute Times Nanomole per Liter per Meter Squared", "submissionValue": "min*nmol/L/m2"}, {"conceptId": "C85734", "definition": "Minutes times picograms per milliliter (area under the curve).", "preferredTerm": "Minute Times Picogram per Milliliter", "submissionValue": "min*pg/mL"}, {"conceptId": "C111272", "definition": "Minutes times picograms per milliliter (area under the curve), divided by kilograms per meter squared (body mass index).", "preferredTerm": "Minute Times Picogram per Milliliter per Kilogram per Meter Squared", "submissionValue": "min*pg/mL/(kg/m2)"}, {"conceptId": "C117952", "definition": "Minutes times picograms per milliliter (area under the curve), divided by milligrams per gram (dose normalized by body weight).", "preferredTerm": "Minute Times Picogram Per Milliliter Per Milligram Per Gram", "submissionValue": "min*pg/mL/(mg/g)"}, {"conceptId": "C117953", "definition": "Minutes times picograms per milliliter (area under the curve), divided by milligrams per gram per day (daily dose normalized by body weight).", "preferredTerm": "Minute Times Picogram Per Milliliter Per Milligram Per Gram Per Day", "submissionValue": "min*pg/mL/(mg/g/day)"}, {"conceptId": "C111273", "definition": "Minutes times picograms per milliliter (area under the curve), divided by meters squared (surface area).", "preferredTerm": "Minute Times Picogram per Milliliter per Meter Squared", "submissionValue": "min*pg/mL/m2"}, {"conceptId": "C106543", "definition": "Minutes times picomoles per liter (area under the curve).", "preferredTerm": "Minute Times Picomole Per Liter", "submissionValue": "min*pmol/L"}, {"conceptId": "C111274", "definition": "Minutes times picomoles per liter (area under the curve), divided by kilograms per meter squared (body mass index).", "preferredTerm": "Minute Times Picomole per Liter per Kilogram per Meter Squared", "submissionValue": "min*pmol/L/(kg/m2)"}, {"conceptId": "C117954", "definition": "Minutes times picomoles per liter (area under the curve), divided by milligrams per gram (dose normalized by body weight).", "preferredTerm": "Minute Times Picomole Per Liter Per Milligram Per Gram", "submissionValue": "min*pmol/L/(mg/g)"}, {"conceptId": "C117955", "definition": "Minutes times picomoles per liter (area under the curve), divided by milligrams per gram per day (daily dose normalized by body weight).", "preferredTerm": "Minute Times Picomole Per Liter Per Milligram Per Gram Per Day", "submissionValue": "min*pmol/L/(mg/g/day)"}, {"conceptId": "C112355", "definition": "Minutes times picomoles per liter (area under the curve), divided by kilograms (weight).", "preferredTerm": "Minute Times Picomole Per Liter Per Kilogram", "submissionValue": "min*pmol/L/kg"}, {"conceptId": "C111275", "definition": "Minutes times picomoles per liter (area under the curve), divided by meters squared (surface area).", "preferredTerm": "Minute Times Picomole per Liter per Meter Squared", "submissionValue": "min*pmol/L/m2"}, {"conceptId": "C85727", "definition": "Minutes times micrograms per milliliter (area under the curve).", "preferredTerm": "Minute Times Microgram per Milliliter", "submissionValue": "min*ug/mL"}, {"conceptId": "C111258", "definition": "Minutes times micrograms per milliliter (area under the curve), divided by kilograms per meter squared (body mass index).", "preferredTerm": "Minute Times Microgram per Milliliter per Kilogram per Meter Squared", "submissionValue": "min*ug/mL/(kg/m2)"}, {"conceptId": "C117956", "definition": "Minutes times micrograms per milliliter (area under the curve), divided by milligrams per gram (dose normalized by body weight).", "preferredTerm": "Minute Times Microgram Per Milliliter Per Milligram Per Gram", "submissionValue": "min*ug/mL/(mg/g)"}, {"conceptId": "C117957", "definition": "Minutes times micrograms per milliliter (area under the curve), divided by milligrams per gram per day (daily dose normalized by body weight).", "preferredTerm": "Minute Times Microgram Per Milliliter Per Milligram Per Gram Per Day", "submissionValue": "min*ug/mL/(mg/g/day)"}, {"conceptId": "C112338", "definition": "Minutes times milligrams per milliliter (area under the curve), divided by kilograms (weight) or minutes times micrograms per milliliter (area under the curve), divided by grams (weight).", "preferredTerm": "Minute Times Microgram Per Milliliter Per Gram", "submissionValue": "min*ug/mL/g", "synonyms": ["min*mg/mL/kg", "min*ug/mL/g"]}, {"conceptId": "C112339", "definition": "Minutes times micrograms per milliliter (area under the curve), divided by kilograms (weight) or minutes times nanograms per milliliter (area under the curve), divided by grams (weight).", "preferredTerm": "Minute Times Microgram Per Milliliter Per Kilogram", "submissionValue": "min*ug/mL/kg", "synonyms": ["min*ng/mL/g", "min*ug/mL/kg"]}, {"conceptId": "C111259", "definition": "Minutes times micrograms per milliliter (area under the curve), divided by meters squared (surface area).", "preferredTerm": "Minute Times Microgram per Milliliter per Meter Squared", "submissionValue": "min*ug/mL/m2"}, {"conceptId": "C85733", "definition": "Minutes times micromoles per liter (area under the curve).", "preferredTerm": "Minute Times Nanomole per Milliliter", "submissionValue": "min*umol/L"}, {"conceptId": "C111260", "definition": "Minutes times micromoles per liter (area under the curve), divided by kilograms per meter squared (body mass index).", "preferredTerm": "Minute Times Micromole per Liter per Kilogram per Meter Squared", "submissionValue": "min*umol/L/(kg/m2)"}, {"conceptId": "C117958", "definition": "Minutes times micromoles per liter (area under the curve), divided by milligrams per gram (dose normalized by body weight).", "preferredTerm": "Minute Times Micromole Per Liter Per Milligram Per Gram", "submissionValue": "min*umol/L/(mg/g)"}, {"conceptId": "C117959", "definition": "Minutes times micromoles per liter (area under the curve), divided by milligrams per gram per day (daily dose normalized by body weight).", "preferredTerm": "Minute Times Micromole Per Liter Per Milligram Per Gram Per Day", "submissionValue": "min*umol/L/(mg/g/day)"}, {"conceptId": "C112340", "definition": "Minutes times millimoles per liter (area under the curve), divided by kilograms (weight) or minutes times micromoles per liter (area under the curve), divided by grams (weight).", "preferredTerm": "Minute Times Micromole Per Liter Per Gram", "submissionValue": "min*umol/L/g", "synonyms": ["min*mmol/L/kg", "min*umol/L/g"]}, {"conceptId": "C112341", "definition": "Minutes times micromoles per liter (area under the curve), divided by kilograms (weight) or minutes times nanomoles per liter (area under the curve), divided by grams (weight).", "preferredTerm": "Minute Times Micromole Per Liter Per Kilogram", "submissionValue": "min*umol/L/kg", "synonyms": ["min*nmol/L/g", "min*umol/L/kg"]}, {"conceptId": "C111261", "definition": "Minutes times micromoles per liter (area under the curve), divided by meters squared (surface area).", "preferredTerm": "Minute Times Micromole per Liter per Meter Squared", "submissionValue": "min*umol/L/m2"}, {"conceptId": "C67376", "definition": "A unit of concentration (biologic activity) equal to one milli-international unit of substance per milliliter of solution or one international unit of substance per liter of solution.", "preferredTerm": "International Unit per Liter", "submissionValue": "mIU/mL", "synonyms": ["IE/L", "International Unit per Liter", "IU/L", "mIU/mL"]}, {"conceptId": "C119396", "definition": "Milli-international units per milliliter (concentration), divided by kilograms per meter squared (body mass index).", "preferredTerm": "Milli-International Unit per Milliliter per Kilogram per Meter Squared", "submissionValue": "mIU/mL/(kg/m2)"}, {"conceptId": "C119397", "definition": "Milli-international units per milliliter (concentration), divided by milligrams per day (daily dose) or micro-international units per milliliter (concentration), divided by micrograms per day (daily dose).", "preferredTerm": "Milli-International Unit per Milliliter per Milligram per Day", "submissionValue": "mIU/mL/(mg/day)", "synonyms": ["mIU/mL/(mg/day)", "uIU/mL/(ug/day)"]}, {"conceptId": "C119398", "definition": "Milli-international units per milliliter (concentration), divided by milligrams per kilogram (dose normalized by body weight) or micro-international units per milliliter (concentration), divided by micrograms per kilogram (dose normalized by body weight).", "preferredTerm": "Milli-International Unit per Milliliter per Milligram per Kilogram", "submissionValue": "mIU/mL/(mg/kg)", "synonyms": ["mIU/mL/(mg/kg)", "uIU/mL/(ug/kg)"]}, {"conceptId": "C119399", "definition": "Milli-international units per milliliter (concentration), divided by milligrams per kilogram per day (daily dose normalized by body weight) or micro-international units per milliliter (concentration), divided by micrograms per kilogram per day (daily dose normalized by body weight).", "preferredTerm": "Milli-International Unit per Milliliter per Milligram per Kilogram per Day", "submissionValue": "mIU/mL/(mg/kg/day)", "synonyms": ["mIU/mL/(mg/kg/day)", "uIU/mL/(ug/kg/day)"]}, {"conceptId": "C119400", "definition": "Milli-international units per milliliter (concentration), divided by milligrams per meter squared (dose normalized by surface area) or micro-international units per milliliter (concentration), divided by micrograms per meter squared (dose normalized by surface area).", "preferredTerm": "Milli-International Unit per Milliliter per Milligram per Meter Squared", "submissionValue": "mIU/mL/(mg/m2)", "synonyms": ["mIU/mL/(mg/m2)", "uIU/mL/(ug/m2)"]}, {"conceptId": "C119401", "definition": "Milli-international units per milliliter (concentration), divided by milligrams per meter squared per day (daily dose normalized by surface area) or micro-international units per milliliter (concentration), divided by micrograms per meter squared per day (daily dose normalized by surface area).", "preferredTerm": "Milli-International Unit per Milliliter per Milligram per Meter Squared per Day", "submissionValue": "mIU/mL/(mg/m2/day)", "synonyms": ["mIU/mL/(mg/m2/day)", "uIU/mL/(ug/m2/day)"]}, {"conceptId": "C119408", "definition": "Milli-international units per milliliter (concentration), divided by kilograms (weight) or micro-international units per milliliter (concentration), divided by grams (weight).", "preferredTerm": "Milli-International Unit per Milliliter per Kilogram", "submissionValue": "mIU/mL/kg", "synonyms": ["mIU/mL/kg", "uIU/mL/g"]}, {"conceptId": "C119409", "definition": "Milli-international units per milliliter (concentration), divided by meters squared (surface area).", "preferredTerm": "Milli-International Unit per Milliliter per Meter Squared", "submissionValue": "mIU/mL/m2"}, {"conceptId": "C28254", "definition": "A unit of volume equal to one thousandth (1E-3) of a liter.", "preferredTerm": "Milliliter", "submissionValue": "mL", "synonyms": ["cm3", "Milliliter"]}, {"conceptId": "C120816", "definition": "Milliliters (volume), divided by kilograms per meter squared (body mass index).", "preferredTerm": "Milliliter per Kilogram per Meter Squared", "submissionValue": "mL/(kg/m2)"}, {"conceptId": "C120817", "definition": "Milliliters (volume), divided by milligrams per day (daily dose).", "preferredTerm": "Milliliter per Milligram per Day", "submissionValue": "mL/(mg/day)"}, {"conceptId": "C120818", "definition": "Milliliters (volume), divided by milligrams per kilogram (dose normalized by body weight).", "preferredTerm": "Milliliter per Milligram per Kilogram", "submissionValue": "mL/(mg/kg)"}, {"conceptId": "C120819", "definition": "Milliliters (volume), divided by milligrams per kilogram per day (daily dose normalized by body weight).", "preferredTerm": "Milliliter per Milligram per Kilogram per Day", "submissionValue": "mL/(mg/kg/day)"}, {"conceptId": "C120820", "definition": "Milliliters (volume), divided by milligrams per meter squared (dose normalized by surface area).", "preferredTerm": "Milliliter per Milligram per Meter Squared", "submissionValue": "mL/(mg/m2)"}, {"conceptId": "C120821", "definition": "Milliliters (volume), divided by milligrams per meter squared per day (daily dose normalized by surface area).", "preferredTerm": "Milliliter per Milligram per Meter Squared per Day", "submissionValue": "mL/(mg/m2/day)"}, {"conceptId": "C120822", "definition": "Milliliters (volume), divided by micrograms per kilogram (dose normalized by body weight).", "preferredTerm": "Milliliter per Microgram per Kilogram", "submissionValue": "mL/(ug/kg)"}, {"conceptId": "C67410", "definition": "A unit of flow rate equal to one milliliter per day.", "preferredTerm": "Milliliter per 24 Hours", "submissionValue": "mL/day", "synonyms": ["mL/24h"]}, {"conceptId": "C66962", "definition": "A unit of flow rate equal to one milliliter per hour.", "preferredTerm": "Milliliter per Hour", "submissionValue": "mL/h", "synonyms": ["cc/hr", "cm3/h"]}, {"conceptId": "C67411", "definition": "Milliliters (volume) divided by kilograms (weight).", "preferredTerm": "Milliliter per Kilogram", "submissionValue": "mL/kg"}, {"conceptId": "C73761", "definition": "Milliliters (volume) divided by meters squared (surface area).", "preferredTerm": "Milliliter per Square Meter", "submissionValue": "mL/m2"}, {"conceptId": "C64777", "definition": "A unit of flow rate equal to one milliliter per minute.", "preferredTerm": "Milliliter per Minute", "submissionValue": "mL/min"}, {"conceptId": "C48513", "definition": "A unit of amount of substance equal to one thousandth (1E-3) of a mole.", "preferredTerm": "Millimole", "submissionValue": "mmol", "synonyms": ["Millimole"]}, {"conceptId": "C85720", "definition": "A unit of substance flow rate equal to one millimole per hour.", "preferredTerm": "Millimole per Hour", "submissionValue": "mmol/h"}, {"conceptId": "C64387", "definition": "A unit of concentration (molarity unit) equal to one millimole of solute per liter of solution.", "preferredTerm": "Millimole per Liter", "submissionValue": "mmol/L", "synonyms": ["mcmol/mL", "Micromole per Milliliter", "Millimole per Liter", "mmol/L", "mol/m3", "Mole per Cubic Meter", "nmol/uL", "umol/mL"]}, {"conceptId": "C119412", "definition": "Millimoles per liter (concentration), divided by kilograms per meter squared (body mass index).", "preferredTerm": "Millimole per Liter per Kilogram per Meter Squared", "submissionValue": "mmol/L/(kg/m2)"}, {"conceptId": "C119413", "definition": "Millimoles per liter (concentration), divided by milligrams per day (daily dose) or micromoles per liter (concentration), divided by micrograms per day (daily dose).", "preferredTerm": "Millimole per Liter per Milligram per Day", "submissionValue": "mmol/L/(mg/day)", "synonyms": ["mmol/L/(mg/day)", "umol/L/(ug/day)"]}, {"conceptId": "C119414", "definition": "Millimoles per liter (concentration), divided by milligrams per kilogram (dose normalized by body weight) or micromoles per liter (concentration), divided by micrograms per kilogram (dose normalized by body weight).", "preferredTerm": "Millimole per Liter per Milligram per Kilogram", "submissionValue": "mmol/L/(mg/kg)", "synonyms": ["mmol/L/(mg/kg)", "umol/L/(ug/kg)"]}, {"conceptId": "C119415", "definition": "Millimoles per liter (concentration), divided by milligrams per kilogram per day (daily dose normalized by body weight) or micromoles per liter (concentration), divided by micrograms per kilogram per day (daily dose normalized by body weight).", "preferredTerm": "Millimole per Liter per Milligram per Kilogram per Day", "submissionValue": "mmol/L/(mg/kg/day)", "synonyms": ["mmol/L/(mg/kg/day)", "umol/L/(ug/kg/day)"]}, {"conceptId": "C119416", "definition": "Millimoles per liter (concentration), divided by milligrams per meter squared (dose normalized by surface area) or micromoles per liter (concentration), divided by micrograms per meter squared (dose normalized by surface area).", "preferredTerm": "Millimole per Liter per Milligram per Meter Squared", "submissionValue": "mmol/L/(mg/m2)", "synonyms": ["mmol/L/(mg/m2)", "umol/L/(ug/m2)"]}, {"conceptId": "C119417", "definition": "Millimoles per liter (concentration), divided by milligrams per meter squared per day (daily dose normalized by surface area) or micromoles per liter (concentration), divided by micrograms per meter squared per day (daily dose normalized by surface area).", "preferredTerm": "Millimole per Liter per Milligram per Meter Squared per Day", "submissionValue": "mmol/L/(mg/m2/day)", "synonyms": ["mmol/L/(mg/m2/day)", "umol/L/(ug/m2/day)"]}, {"conceptId": "C119418", "definition": "Moles per liter (concentration), divided by milligrams per day (daily dose) or millimoles per liter (concentration), divided by micrograms per day (daily dose).", "preferredTerm": "Millimole per Liter per Microgram per Day", "submissionValue": "mmol/L/(ug/day)", "synonyms": ["mmol/L/(ug/day)", "mol/L/(mg/day)"]}, {"conceptId": "C119419", "definition": "Moles per liter (concentration), divided by milligrams per kilogram (dose normalized by body weight) or millimoles per liter (concentration), divided by micrograms per kilogram (dose normalized by body weight).", "preferredTerm": "Millimole per Liter per Microgram per Kilogram", "submissionValue": "mmol/L/(ug/kg)", "synonyms": ["mmol/L/(ug/kg)", "mol/L/(mg/kg)"]}, {"conceptId": "C119420", "definition": "Moles per liter (concentration), divided by milligrams per kilogram per day (daily dose normalized by body weight) or millimoles per liter (concentration), divided by micrograms per kilogram per day (daily dose normalized by body weight).", "preferredTerm": "Millimole per Liter per Microgram per Kilogram per Day", "submissionValue": "mmol/L/(ug/kg/day)", "synonyms": ["mmol/L/(ug/kg/day)", "mol/L/(mg/kg/day)"]}, {"conceptId": "C119421", "definition": "Moles per liter (concentration), divided by milligrams per meter squared (dose normalized by surface area) or millimoles per liter (concentration), divided by micrograms per meter squared (dose normalized by surface area).", "preferredTerm": "Millimole per Liter per Microgram per Meter Squared", "submissionValue": "mmol/L/(ug/m2)", "synonyms": ["mmol/L/(ug/m2)", "mol/L/(mg/m2)"]}, {"conceptId": "C119422", "definition": "Moles per liter (concentration), divided by milligrams per meter squared per day (daily dose normalized by surface area) or millimoles per liter (concentration), divided by micrograms per meter squared per day (daily dose normalized by surface area).", "preferredTerm": "Millimole per Liter per Microgram per Meter Squared per Day", "submissionValue": "mmol/L/(ug/m2/day)", "synonyms": ["mmol/L/(ug/m2/day)", "mol/L/(mg/m2/day)"]}, {"conceptId": "C119423", "definition": "Moles per liter (concentration), divided by kilograms (weight) or millimoles per liter (concentration), divided by grams (weight) or micromoles per liter (concentration), divided by milligrams (dose) or nanomoles per liter (concentration), divided by micrograms (dose).", "preferredTerm": "Millimole per Liter per Gram", "submissionValue": "mmol/L/g", "synonyms": ["mmol/L/g", "mol/L/kg", "nmol/L/ug", "umol/L/mg"]}, {"conceptId": "C119425", "definition": "Millimoles per liter (concentration), divided by meters squared (surface area).", "preferredTerm": "Millimole per Liter per Meter Squared", "submissionValue": "mmol/L/m2"}, {"conceptId": "C119426", "definition": "Moles per liter (concentration), divided by grams (weight) or millimoles per liter (concentration), divided by milligrams (dose) or micromoles per liter (concentration), divided by micrograms (dose).", "preferredTerm": "Millimole per Liter per Milligram", "submissionValue": "mmol/L/mg", "synonyms": ["mmol/L/mg", "mol/L/g", "umol/L/ug"]}, {"conceptId": "C119427", "definition": "Moles per liter (concentration), divided by milligrams (dose) or millimoles per liter (concentration), divided by micrograms (dose).", "preferredTerm": "Millimole per Liter per Microgram", "submissionValue": "mmol/L/ug", "synonyms": ["mmol/L/ug", "mol/L/mg"]}, {"conceptId": "C85722", "definition": "A unit of substance flow rate equal to one millimole per minute.", "preferredTerm": "Millimole per Minute", "submissionValue": "mmol/min"}, {"conceptId": "C42539", "definition": "The base unit of amount of substance in the International System of Units (SI). It is equal to the same number of elementary units as there are atoms in 0.012 kg of carbon-12.", "preferredTerm": "Mole", "submissionValue": "mol", "synonyms": ["Mole"]}, {"conceptId": "C85737", "definition": "A unit of substance flow rate equal to one mole per day.", "preferredTerm": "Mole per Day", "submissionValue": "mol/day"}, {"conceptId": "C85738", "definition": "A unit of substance flow rate equal to one mole per hour.", "preferredTerm": "Mole per Hour", "submissionValue": "mol/h"}, {"conceptId": "C48555", "definition": "A unit of concentration (molarity unit) equal to one mole of solute in one liter of solution.(NCI)", "preferredTerm": "Mole per Liter", "submissionValue": "mol/L", "synonyms": ["mmol/mL", "mol/L", "Mole per Liter"]}, {"conceptId": "C119428", "definition": "Moles per liter (concentration), divided by kilograms per meter squared (body mass index).", "preferredTerm": "Mole per Liter per Kilogram per Meter Squared", "submissionValue": "mol/L/(kg/m2)"}, {"conceptId": "C119434", "definition": "Moles per liter (concentration), divided by micrograms per day (daily dose).", "preferredTerm": "Mole per Liter per Microgram per Day", "submissionValue": "mol/L/(ug/day)"}, {"conceptId": "C119435", "definition": "Moles per liter (concentration), divided by micrograms per kilogram (dose normalized by body weight).", "preferredTerm": "Mole per Liter per Microgram per Kilogram", "submissionValue": "mol/L/(ug/kg)"}, {"conceptId": "C119436", "definition": "Moles per liter (concentration), divided by micrograms per kilogram per day (daily dose normalized by body weight).", "preferredTerm": "Mole per Liter per Microgram per Kilogram per Day", "submissionValue": "mol/L/(ug/kg/day)"}, {"conceptId": "C119437", "definition": "Moles per liter (concentration), divided by micrograms per meter squared (dose normalized by surface area).", "preferredTerm": "Mole per Liter per Microgram per Meter Squared", "submissionValue": "mol/L/(ug/m2)"}, {"conceptId": "C119438", "definition": "Moles per liter (concentration), divided by micrograms per meter squared per day (daily dose normalized by surface area).", "preferredTerm": "Mole per Liter per Microgram per Meter Squared per Day", "submissionValue": "mol/L/(ug/m2/day)"}, {"conceptId": "C119441", "definition": "Moles per liter (concentration), divided by meters squared (surface area).", "preferredTerm": "Mole per Liter per Meter Squared", "submissionValue": "mol/L/m2"}, {"conceptId": "C119443", "definition": "Moles per liter (concentration), divided by micrograms (dose).", "preferredTerm": "Mole per Liter per Microgram", "submissionValue": "mol/L/ug"}, {"conceptId": "C85739", "definition": "A unit of substance flow rate equal to one mole per minute.", "preferredTerm": "Mole per Minute", "submissionValue": "mol/min"}, {"conceptId": "C48516", "definition": "A unit of mass equal to one billionth (1E-9) of a gram.", "preferredTerm": "Nanogram", "submissionValue": "ng", "synonyms": ["Nanogram"]}, {"conceptId": "C85741", "definition": "A unit of mass flow rate equal to one nanogram per day.", "preferredTerm": "Nanogram per Day", "submissionValue": "ng/day"}, {"conceptId": "C85742", "definition": "A unit of mass flow rate equal to one nanogram per hour.", "preferredTerm": "Nanogram per Hour", "submissionValue": "ng/h"}, {"conceptId": "C85743", "definition": "Nanograms per kilogram per minute.", "preferredTerm": "Nanogram per Kilogram per Minute", "submissionValue": "ng/kg/min"}, {"conceptId": "C85749", "definition": "A unit of mass flow rate equal to one nanogram per minute.", "preferredTerm": "Nanogram per Minute", "submissionValue": "ng/min"}, {"conceptId": "C67306", "definition": "A unit of concentration or mass density equal to one nanogram of substance per milliliter of solution or one microgram of substance per liter of solution.", "preferredTerm": "Microgram per Liter", "submissionValue": "ng/mL", "synonyms": ["mcg/L", "mg/m3", "Microgram per Liter", "Milligram per Cubic Meter", "Nanogram per Milliliter", "ng/mL", "ug/L"]}, {"conceptId": "C119444", "definition": "Nanograms per milliliter (concentration), divided by kilograms per meter squared (body mass index).", "preferredTerm": "Nanogram per Milliliter per Kilogram per Meter Squared", "submissionValue": "ng/mL/(kg/m2)"}, {"conceptId": "C172588", "definition": "Nanograms per milliliter (concentration), divided by milligrams per centimeter squared (body mass index).", "preferredTerm": "Nanogram Per Milliliter Per Milligram Per Square Centimeter", "submissionValue": "ng/mL/(mg/cm2)"}, {"conceptId": "C119445", "definition": "Nanograms per milliliter (concentration), divided by milligrams per day (daily dose) or picograms per milliliter (concentration), divided by micrograms per day (daily dose).", "preferredTerm": "Nanogram per Milliliter per Milligram per Day", "submissionValue": "ng/mL/(mg/day)", "synonyms": ["ng/mL/(mg/day)", "pg/mL/(ug/day)"]}, {"conceptId": "C105477", "definition": "Nanograms per milliliter (concentration), divided by milligrams per kilogram (dose normalized by body weight) or picograms per milliliter (concentration), divided by micrograms per kilogram (dose normalized by body weight).", "preferredTerm": "Nanogram Per Milliliter Per Milligram Per Kilogram", "submissionValue": "ng/mL/(mg/kg)", "synonyms": ["ng/mL/(mg/kg)", "pg/mL/(ug/kg)"]}, {"conceptId": "C105478", "definition": "Nanograms per milliliter (concentration), divided by milligrams per kilogram per day (daily dose normalized by body weight) or picograms per milliliter (concentration), divided by micrograms per kilogram per day (daily dose normalized by body weight).", "preferredTerm": "Nanogram Per Milliliter Per Milligram Per Kilogram Per Day", "submissionValue": "ng/mL/(mg/kg/day)", "synonyms": ["ng/mL/(mg/kg/day)", "pg/mL/(ug/kg/day)"]}, {"conceptId": "C119446", "definition": "Nanograms per milliliter (concentration), divided by milligrams per meter squared (dose normalized by surface area) or picograms per milliliter (concentration), divided by micrograms per meter squared (dose normalized by surface area).", "preferredTerm": "Nanogram per Milliliter per Milligram per Meter Squared", "submissionValue": "ng/mL/(mg/m2)", "synonyms": ["ng/mL/(mg/m2)", "pg/mL/(ug/m2)"]}, {"conceptId": "C119447", "definition": "Nanograms per milliliter (concentration), divided by milligrams per meter squared per day (daily dose normalized by surface area) or picograms per milliliter (concentration), divided by micrograms per meter squared per day (daily dose normalized by surface area).", "preferredTerm": "Nanogram per Milliliter per Milligram per Meter Squared per Day", "submissionValue": "ng/mL/(mg/m2/day)", "synonyms": ["ng/mL/(mg/m2/day)", "pg/mL/(ug/m2/day)"]}, {"conceptId": "C119448", "definition": "Micrograms per milliliter (concentration), divided by milligrams per day (daily dose) or nanograms per milliliter (concentration), divided by micrograms per day (daily dose).", "preferredTerm": "Nanogram per Milliliter per Microgram per Day", "submissionValue": "ng/mL/(ug/day)", "synonyms": ["ng/mL/(ug/day)", "ug/mL/(mg/day)"]}, {"conceptId": "C119451", "definition": "Micrograms per milliliter (concentration), divided by milligrams per meter squared (dose normalized by surface area) or nanograms per milliliter (concentration), divided by micrograms per meter squared (dose normalized by surface area).", "preferredTerm": "Nanogram per Milliliter per Microgram per Meter Squared", "submissionValue": "ng/mL/(ug/m2)", "synonyms": ["ng/mL/(ug/m2)", "ug/mL/(mg/m2)"]}, {"conceptId": "C119452", "definition": "Micrograms per milliliter (concentration), divided by milligrams per meter squared per day (daily dose normalized by surface area) or nanograms per milliliter (concentration), divided by micrograms per meter squared per day (daily dose normalized by surface area).", "preferredTerm": "Nanogram per Milliliter per Microgram per Meter Squared per Day", "submissionValue": "ng/mL/(ug/m2/day)", "synonyms": ["ng/mL/(ug/m2/day)", "ug/mL/(mg/m2/day)"]}, {"conceptId": "C85746", "definition": "Nanograms per milliliter (concentration), divided by kilograms (weight) or picograms per milliliter (concentration), divided by grams (weight) or femtograms per milliliter (concentration), divided by milligrams (dose).", "preferredTerm": "Nanogram per Milliliter per Kilogram", "submissionValue": "ng/mL/kg", "synonyms": ["fg/mL/mg", "ng/mL/kg", "pg/mL/g"]}, {"conceptId": "C119454", "definition": "Nanograms per milliliter (concentration), divided by meters squared (surface area).", "preferredTerm": "Nanogram per Milliliter per Meter Squared", "submissionValue": "ng/mL/m2"}, {"conceptId": "C85747", "definition": "Milligrams per milliliter (concentration), divided by kilograms (weight) or micrograms per milliliter (concentration), divided by grams (weight) or nanograms per milliliter (concentration), divided by milligrams (dose) or picograms per milliliter (concentration), divided by micrograms (dose).", "preferredTerm": "Nanogram per Milliliter per Milligram", "submissionValue": "ng/mL/mg", "synonyms": ["mg/mL/kg", "ng/mL/mg", "pg/mL/ug", "ug/mL/g"]}, {"conceptId": "C184705", "definition": "A unit of relative amount of substance equal to one billionth of a gram of an equivalent weight.", "preferredTerm": "Nanogram Equivalents", "submissionValue": "ngEq", "synonyms": ["Nanogram Equivalent"]}, {"conceptId": "C166082", "definition": "Nanogram equivalents of a radiolabeled substance per gram of matrix or tissue.", "preferredTerm": "Nanogram Equivalents Per Gram", "submissionValue": "ngEq/g"}, {"conceptId": "C122230", "definition": "A concentration unit measured as the number of microgram equivalents of solute per liter of solution, or as the number of nanogram equivalents of solute per milliliter of solution.", "preferredTerm": "Microgram Equivalent per Liter", "submissionValue": "ngEq/mL", "synonyms": ["ngEq/mL", "ugEq/L"]}, {"conceptId": "C166083", "definition": "Nanogram equivalents of a radiolabeled substance per milliliter, divided by milligram equivalents (radiolabeled dose).", "preferredTerm": "Nanogram Equivalents Per Milliliter Per Milligram Equivalents", "submissionValue": "ngEq/mL/mgEq"}, {"conceptId": "C48517", "definition": "A unit of amount of substance equal to one billionth (1E-9) of a mole. (NCI)", "preferredTerm": "Nanomole", "submissionValue": "nmol", "synonyms": ["Nanomole"]}, {"conceptId": "C85751", "definition": "A unit of substance flow rate equal to one nanomole per day.", "preferredTerm": "Nanomole per Day", "submissionValue": "nmol/day"}, {"conceptId": "C85752", "definition": "Nanomoles per gram.", "preferredTerm": "Nanomole per Gram", "submissionValue": "nmol/g", "synonyms": ["nmol/g", "pmol/mg", "umol/kg"]}, {"conceptId": "C85753", "definition": "A unit of substance flow rate equal to one nanomole per hour.", "preferredTerm": "Nanomole per Hour", "submissionValue": "nmol/h"}, {"conceptId": "C85754", "definition": "Nanomoles (amount), divided by kilograms (weight) or picomoles per gram.", "preferredTerm": "Nanomole per Kilogram", "submissionValue": "nmol/kg", "synonyms": ["nmol/kg", "pmol/g"]}, {"conceptId": "C67432", "definition": "A unit of concentration (molarity unit) equal to one nanomole of solute per liter of solution.", "preferredTerm": "Nanomole per Liter", "submissionValue": "nmol/L", "synonyms": ["Nanomole per Liter", "pmol/mL"]}, {"conceptId": "C119456", "definition": "Nanomoles per liter (concentration), divided by kilograms per meter squared (body mass index).", "preferredTerm": "Nanomole per Liter per Kilogram per Meter Squared", "submissionValue": "nmol/L/(kg/m2)"}, {"conceptId": "C119457", "definition": "Nanomoles per liter (concentration), divided by milligrams per day (daily dose) or picomoles per liter (concentration), divided by micrograms per day (daily dose).", "preferredTerm": "Nanomole per Liter per Milligram per Day", "submissionValue": "nmol/L/(mg/day)", "synonyms": ["nmol/L/(mg/day)", "pmol/L/(ug/day)"]}, {"conceptId": "C119458", "definition": "Nanomoles per liter (concentration), divided by milligrams per kilogram (dose normalized by body weight) or picomoles per liter (concentration), divided by micrograms per kilogram (dose normalized by body weight).", "preferredTerm": "Nanomole per Liter per Milligram per Kilogram", "submissionValue": "nmol/L/(mg/kg)", "synonyms": ["nmol/L/(mg/kg)", "pmol/L/(ug/kg)"]}, {"conceptId": "C119459", "definition": "Nanomoles per liter (concentration), divided by milligrams per kilogram per day (daily dose normalized by body weight) or picomoles per liter (concentration), divided by micrograms per kilogram per day (daily dose normalized by body weight).", "preferredTerm": "Nanomole per Liter per Milligram per Kilogram per Day", "submissionValue": "nmol/L/(mg/kg/day)", "synonyms": ["nmol/L/(mg/kg/day)", "pmol/L/(ug/kg/day)"]}, {"conceptId": "C119460", "definition": "Nanomoles per liter (concentration), divided by milligrams per meter squared (dose normalized by surface area) or picomoles per liter (concentration), divided by micrograms per meter squared (dose normalized by surface area).", "preferredTerm": "Nanomole per Liter per Milligram per Meter Squared", "submissionValue": "nmol/L/(mg/m2)", "synonyms": ["nmol/L/(mg/m2)", "pmol/L/(ug/m2)"]}, {"conceptId": "C119461", "definition": "Nanomoles per liter (concentration), divided by milligrams per meter squared per day (daily dose normalized by surface area) or picomoles per liter (concentration), divided by micrograms per meter squared per day (daily dose normalized by surface area).", "preferredTerm": "Nanomole per Liter per Milligram per Meter Squared per Day", "submissionValue": "nmol/L/(mg/m2/day)", "synonyms": ["nmol/L/(mg/m2/day)", "pmol/L/(ug/m2/day)"]}, {"conceptId": "C119462", "definition": "Micromoles per liter (concentration), divided by milligrams per day (daily dose) or nanomoles per liter (concentration), divided by micrograms per day (daily dose).", "preferredTerm": "Nanomole per Liter per Microgram per Day", "submissionValue": "nmol/L/(ug/day)", "synonyms": ["nmol/L/(ug/day)", "umol/L/(mg/day)"]}, {"conceptId": "C119463", "definition": "Micromoles per liter (concentration), divided by milligrams per kilogram (dose normalized by body weight) or nanomoles per liter (concentration), divided by micrograms per kilogram (dose normalized by body weight).", "preferredTerm": "Nanomole per Liter per Microgram per Kilogram", "submissionValue": "nmol/L/(ug/kg)", "synonyms": ["nmol/L/(ug/kg)", "umol/L/(mg/kg)"]}, {"conceptId": "C119464", "definition": "Micromoles per liter (concentration), divided by milligrams per kilogram per day (daily dose normalized by body weight) or nanomoles per liter (concentration), divided by micrograms per kilogram per day (daily dose normalized by body weight).", "preferredTerm": "Nanomole per Liter per Microgram per Kilogram per Day", "submissionValue": "nmol/L/(ug/kg/day)", "synonyms": ["nmol/L/(ug/kg/day)", "umol/L/(mg/kg/day)"]}, {"conceptId": "C119465", "definition": "Micromoles per liter (concentration), divided by milligrams per meter squared (dose normalized by surface area) or nanomoles per liter (concentration), divided by micrograms per meter squared (dose normalized by surface area).", "preferredTerm": "Nanomole per Liter per Microgram per Meter Squared", "submissionValue": "nmol/L/(ug/m2)", "synonyms": ["nmol/L/(ug/m2)", "umol/L/(mg/m2)"]}, {"conceptId": "C119466", "definition": "Micromoles per liter (concentration), divided by milligrams per meter squared per day (daily dose normalized by surface area) or nanomoles per liter (concentration), divided by micrograms per meter squared per day (daily dose normalized by surface area).", "preferredTerm": "Nanomole per Liter per Microgram per Meter Squared per Day", "submissionValue": "nmol/L/(ug/m2/day)", "synonyms": ["nmol/L/(ug/m2/day)", "umol/L/(mg/m2/day)"]}, {"conceptId": "C119467", "definition": "Micromoles per liter (concentration), divided by kilograms (weight) or nanomoles per liter (concentration), divided by grams (weight) or picomoles per liter (concentration), divided by milligrams (dose).", "preferredTerm": "Nanomole per Liter per Gram", "submissionValue": "nmol/L/g", "synonyms": ["nmol/L/g", "pmol/L/mg", "umol/L/kg"]}, {"conceptId": "C119468", "definition": "Nanomoles per liter (concentration), divided by kilograms (weight) or picomoles per liter (concentration), divided by grams (weight).", "preferredTerm": "Nanomole per Liter per Kilogram", "submissionValue": "nmol/L/kg", "synonyms": ["nmol/L/kg", "pmol/L/g"]}, {"conceptId": "C119469", "definition": "Nanomoles per liter (concentration), divided by meters squared (surface area).", "preferredTerm": "Nanomole per Liter per Meter Squared", "submissionValue": "nmol/L/m2"}, {"conceptId": "C85758", "definition": "A unit of substance flow rate equal to one nanomole per minute.", "preferredTerm": "Nanomole per Minute", "submissionValue": "nmol/min"}, {"conceptId": "C85778", "definition": "A unit of mass flow rate equal to one picogram per day.", "preferredTerm": "Picogram per Day", "submissionValue": "pg/day"}, {"conceptId": "C85779", "definition": "A unit of mass flow rate equal to one picogram per hour.", "preferredTerm": "Picogram per Hour", "submissionValue": "pg/h"}, {"conceptId": "C67396", "definition": "A unit of a mass fraction expressed as a number of micrograms of substance per kilogram of mixture. The unit is also used as a dose calculation unit.(NCI)", "preferredTerm": "Microgram per Kilogram", "submissionValue": "pg/mg", "synonyms": ["mcg/kg", "Microgram per Kilogram", "ng/g", "pg/mg", "ug/kg"]}, {"conceptId": "C85782", "definition": "A unit of mass flow rate equal to one picogram per minute.", "preferredTerm": "Picogram per Minute", "submissionValue": "pg/min"}, {"conceptId": "C67327", "definition": "A unit of concentration or mass density equal to one picogram of substance per milliliter of solution or one nanogram of substance per liter of solution.", "preferredTerm": "Nanogram per Liter", "submissionValue": "pg/mL", "synonyms": ["Microgram per Cubic Meter", "ng/L", "pg/mL", "ug/m3"]}, {"conceptId": "C119472", "definition": "Picograms per milliliter (concentration), divided by kilograms per meter squared (body mass index).", "preferredTerm": "Picogram per Milliliter per Kilogram per Meter Squared", "submissionValue": "pg/mL/(kg/m2)"}, {"conceptId": "C105479", "definition": "Picograms per milliliter (concentration), divided by milligrams per kilogram (dose normalized by body weight) or femtograms per milliliter (concentration), divided by micrograms per kilogram (dose normalized by body weight).", "preferredTerm": "Picogram Per Milliliter Per Milligram Per Kilogram", "submissionValue": "pg/mL/(mg/kg)", "synonyms": ["fg/mL/(ug/kg)", "pg/mL/(mg/kg)"]}, {"conceptId": "C105480", "definition": "Picograms per milliliter (concentration), divided by milligrams per kilogram per day (daily dose normalized by body weight) or femtograms per milliliter (concentration), divided by micrograms per kilogram per day (daily dose normalized by body weight).", "preferredTerm": "Picogram Per Milliliter Per Milligram Per Kilogram Per Day", "submissionValue": "pg/mL/(mg/kg/day)", "synonyms": ["fg/mL/(ug/kg/day)", "pg/mL/(mg/kg/day)"]}, {"conceptId": "C119483", "definition": "Picograms per milliliter (concentration), divided by meters squared (surface area).", "preferredTerm": "Picogram per Milliliter per Meter Squared", "submissionValue": "pg/mL/m2"}, {"conceptId": "C166084", "definition": "Picogram equivalents of a radiolabeled substance per gram of matrix or tissue.", "preferredTerm": "Picogram Equivalents Per Gram", "submissionValue": "pgEq/g"}, {"conceptId": "C166085", "definition": "Picogram equivalents of a radiolabeled substance per milliliter of matrix or fluid.", "preferredTerm": "Picogram Equivalents Per Milliliter", "submissionValue": "pgEq/mL", "synonyms": ["ngEq/L"]}, {"conceptId": "C166086", "definition": "Picogram equivalents of a radiolabeled substance per milliliter, divided by milligram equivalents (radiolabeled dose).", "preferredTerm": "Picogram Equivalents Per Milliliter Per Milligram Equivalents", "submissionValue": "pgEq/mL/mgEq"}, {"conceptId": "C65045", "definition": "A unit of amount of substance equal to a trillionth (1E-12) of a mole. (NCI)", "preferredTerm": "Picomole", "submissionValue": "pmol", "synonyms": ["Picomole"]}, {"conceptId": "C67434", "definition": "A unit of concentration (molarity unit) equal to one picomole of solute per liter of solution.", "preferredTerm": "Picomole per Liter", "submissionValue": "pmol/L", "synonyms": ["Femtomole per Milliliter", "fmol/mL", "Picomole per Liter"]}, {"conceptId": "C119485", "definition": "Picomoles per liter (concentration), divided by kilograms per meter squared (body mass index).", "preferredTerm": "Picomole per Liter per Kilogram per Meter Squared", "submissionValue": "pmol/L/(kg/m2)"}, {"conceptId": "C119486", "definition": "Picomoles per liter (concentration), divided by milligrams per day (daily dose).", "preferredTerm": "Picomole per Liter per Milligram per Day", "submissionValue": "pmol/L/(mg/day)"}, {"conceptId": "C119487", "definition": "Picomoles per liter (concentration), divided by milligrams per kilogram (dose normalized by body weight).", "preferredTerm": "Picomole per Liter per Milligram per Kilogram", "submissionValue": "pmol/L/(mg/kg)"}, {"conceptId": "C119488", "definition": "Picomoles per liter (concentration), divided by milligrams per kilogram per day (daily dose normalized by body weight).", "preferredTerm": "Picomole per Liter per Milligram per Kilogram per Day", "submissionValue": "pmol/L/(mg/kg/day)"}, {"conceptId": "C119489", "definition": "Picomoles per liter (concentration), divided by milligrams per meter squared (dose normalized by surface area).", "preferredTerm": "Picomole per Liter per Milligram per Meter Squared", "submissionValue": "pmol/L/(mg/m2)"}, {"conceptId": "C119490", "definition": "Picomoles per liter (concentration), divided by milligrams per meter squared per day (daily dose normalized by surface area).", "preferredTerm": "Picomole per Liter per Milligram per Meter Squared per Day", "submissionValue": "pmol/L/(mg/m2/day)"}, {"conceptId": "C119497", "definition": "Picomoles per liter (concentration), divided by kilograms (weight).", "preferredTerm": "Picomole per Liter per Kilogram", "submissionValue": "pmol/L/kg"}, {"conceptId": "C119498", "definition": "Picomoles per liter (concentration), divided by meters squared (surface area).", "preferredTerm": "Picomole per Liter per Meter Squared", "submissionValue": "pmol/L/m2"}, {"conceptId": "C85784", "definition": "Millimoles per liter (concentration), divided by kilograms (weight) or micromoles per liter (concentration), divided by grams (weight) or nanomoles per liter (concentration), divided by milligrams (dose) or picomoles per liter (concentration), divided by micrograms (dose).", "preferredTerm": "Picomole per Liter per Microgram", "submissionValue": "pmol/L/ug", "synonyms": ["mmol/L/kg", "nmol/L/mg", "pmol/L/ug", "umol/L/g"]}, {"conceptId": "C44256", "definition": "The quotient of one quantity divided by another, with the same units of measurement.", "preferredTerm": "Ratio", "submissionValue": "RATIO"}, {"conceptId": "C67456", "definition": "A unit of substance concentration equal to the concentration at which one liter of mixture contains one unit of a substance.", "preferredTerm": "Unit per Liter", "submissionValue": "U/L", "synonyms": ["mU/mL", "Unit per Liter"]}, {"conceptId": "C48152", "definition": "A unit of mass equal to one millionth (1E-6) of a gram.", "preferredTerm": "Microgram", "submissionValue": "ug", "synonyms": ["mcg", "Microgram"]}, {"conceptId": "C71205", "definition": "A unit of mass flow rate equal to one microgram per day.", "preferredTerm": "Microgram per Day", "submissionValue": "ug/day", "synonyms": ["mcg/day"]}, {"conceptId": "C67305", "definition": "A unit of mass concentration defined as the concentration of one microgram of a substance per unit volume of the mixture equal to one deciliter. The concept also refers to the unit of mass density (volumic mass) defined as the density of substance which mass equal to one microgram occupies the volume one deciliter. (NCI)", "preferredTerm": "Microgram per Deciliter", "submissionValue": "ug/dL", "synonyms": ["Microgram per Deciliter"]}, {"conceptId": "C67394", "definition": "A unit of mass flow rate equal to one microgram per hour.", "preferredTerm": "Microgram per Hour", "submissionValue": "ug/h", "synonyms": ["mcg/h"]}, {"conceptId": "C71211", "definition": "A unit of mass flow rate equal to one microgram per minute.", "preferredTerm": "Microgram per Minute", "submissionValue": "ug/min", "synonyms": ["mcg/min"]}, {"conceptId": "C64572", "definition": "A unit of concentration or mass density equal to one microgram of substance per milliliter of solution or one milligram of substance per liter of solution.", "preferredTerm": "Microgram per Milliliter", "submissionValue": "ug/mL", "synonyms": ["g/m3", "Gram per Cubic Meter", "mcg/mL", "mg/L", "Microgram per Milliliter", "Milligram per Liter", "ng/uL", "ug/mL"]}, {"conceptId": "C119500", "definition": "Micrograms per milliliter (concentration), divided by kilograms per meter squared (body mass index).", "preferredTerm": "Microgram per Milliliter per Kilogram per Meter Squared", "submissionValue": "ug/mL/(kg/m2)"}, {"conceptId": "C105473", "definition": "Micrograms per milliliter (concentration), divided by milligrams per kilogram (dose normalized by body weight) or nanograms per milliliter (concentration), divided by micrograms per kilogram (dose normalized by body weight).", "preferredTerm": "Microgram Per Milliliter Per Milligram Per Kilogram", "submissionValue": "ug/mL/(mg/kg)", "synonyms": ["ng/mL/(ug/kg)", "ug/mL/(mg/kg)"]}, {"conceptId": "C105474", "definition": "Micrograms per milliliter (concentration), divided by milligrams per kilogram per day (daily dose normalized by body weight) or nanograms per milliliter (concentration), divided by micrograms per kilogram per day (daily dose normalized by body weight).", "preferredTerm": "Microgram Per Milliliter Per Milligram Per Kilogram Per Day", "submissionValue": "ug/mL/(mg/kg/day)", "synonyms": ["ng/mL/(ug/kg/day)", "ug/mL/(mg/kg/day)"]}, {"conceptId": "C119511", "definition": "Micrograms per milliliter (concentration), divided by meters squared (surface area).", "preferredTerm": "Microgram per Milliliter per Meter Squared", "submissionValue": "ug/mL/m2"}, {"conceptId": "C85710", "definition": "Grams per milliliter (concentration), divided by kilograms (weight) or milligrams per milliliter (concentration), divided by grams (weight) or micrograms per milliliter (concentration), divided by milligrams (dose) or nanograms per milliliter (concentration), divided by micrograms (dose).", "preferredTerm": "Milligram per Liter per Milligram", "submissionValue": "ug/mL/mg", "synonyms": ["g/mL/kg", "mg/mL/g", "ng/mL/ug", "ug/mL/mg"]}, {"conceptId": "C105497", "definition": "A unit of relative amount of substance equal to one millionth of a gram of an equivalent weight.", "preferredTerm": "Microgram Equivalent", "submissionValue": "ugEq", "synonyms": ["Microgram Equivalent"]}, {"conceptId": "C166087", "definition": "Microgram equivalents of a radiolabeled substance per gram of matrix or tissue.", "preferredTerm": "Microgram Equivalents Per Gram", "submissionValue": "ugEq/g"}, {"conceptId": "C172587", "definition": "A concentration unit measured as a number of microgram equivalent of solute per milliliter of solution.", "preferredTerm": "Microgram Equivalents Per Milliliter", "submissionValue": "ugEq/mL", "synonyms": ["mgEq/L", "ngEq/uL"]}, {"conceptId": "C166088", "definition": "Microgram equivalents of a radiolabeled substance per milliliter, divided by milligram equivalents (radiolabeled dose).", "preferredTerm": "Microgram Equivalents Per Milliliter Per Milligram Equivalents", "submissionValue": "ugEq/mL/mgEq"}, {"conceptId": "C67405", "definition": "A unit of concentration (biologic activity) equal to one micro-international unit of substance per milliliter of solution or one milli-international unit of substance per liter of solution.", "preferredTerm": "Microinternational Unit per Milliliter", "submissionValue": "uIU/mL", "synonyms": ["mcIU/mL", "Micro-International Unit per milliliter", "mIE/L", "mIU/L", "uIU/mL"]}, {"conceptId": "C119513", "definition": "Micro-international units per milliliter (concentration), divided by kilograms per meter squared (body mass index).", "preferredTerm": "Micro-International Units per Milliliter per Kilogram per Meter Squared", "submissionValue": "uIU/mL/(kg/m2)"}, {"conceptId": "C119514", "definition": "Micro-international units per milliliter (concentration), divided by milligrams per day (daily dose).", "preferredTerm": "Micro-International Units per Milliliter per Milligram per Day", "submissionValue": "uIU/mL/(mg/day)"}, {"conceptId": "C119515", "definition": "Micro-international units per milliliter (concentration), divided by milligrams per kilogram (dose normalized by body weight).", "preferredTerm": "Micro-International Units per Milliliter per Milligram per Kilogram", "submissionValue": "uIU/mL/(mg/kg)"}, {"conceptId": "C119516", "definition": "Micro-international units per milliliter (concentration), divided by milligrams per kilogram per day (daily dose normalized by body weight).", "preferredTerm": "Micro-International Units per Milliliter per Milligram per Kilogram per Day", "submissionValue": "uIU/mL/(mg/kg/day)"}, {"conceptId": "C119517", "definition": "Micro-international units per milliliter (concentration), divided by milligrams per meter squared (dose normalized by surface area).", "preferredTerm": "Micro-International Units per Milliliter per Milligram per Meter Squared", "submissionValue": "uIU/mL/(mg/m2)"}, {"conceptId": "C119518", "definition": "Micro-international units per milliliter (concentration), divided by milligrams per meter squared per day (daily dose normalized by surface area).", "preferredTerm": "Micro-International Units per Milliliter per Milligram per Meter Squared per Day", "submissionValue": "uIU/mL/(mg/m2/day)"}, {"conceptId": "C119525", "definition": "Micro-international units per milliliter (concentration), divided by kilograms (weight).", "preferredTerm": "Micro-International Units per Milliliter per Kilogram", "submissionValue": "uIU/mL/kg"}, {"conceptId": "C119526", "definition": "Micro-international units per milliliter (concentration), divided by meters squared (surface area).", "preferredTerm": "Micro-International Units per Milliliter per Meter Squared", "submissionValue": "uIU/mL/m2"}, {"conceptId": "C48509", "definition": "A unit of amount of substance equal to one millionth (1E-6) of a mole. (NCI)", "preferredTerm": "Micromole", "submissionValue": "umol", "synonyms": ["mcmol", "Micromole"]}, {"conceptId": "C67406", "definition": "A unit of substance flow rate equal to one micromole per day.", "preferredTerm": "Micromole per 24 Hours", "submissionValue": "umol/day", "synonyms": ["mcmol/day"]}, {"conceptId": "C85707", "definition": "A unit of substance flow rate equal to one micromole per hour.", "preferredTerm": "Micromole per Hour", "submissionValue": "umol/h"}, {"conceptId": "C48508", "definition": "A unit of concentration (molarity unit) equal to one micromole of solute per liter of solution.", "preferredTerm": "Micromole per Liter", "submissionValue": "umol/L", "synonyms": ["nmol/mL"]}, {"conceptId": "C119529", "definition": "Micromoles per liter (concentration), divided by kilograms per meter squared (body mass index).", "preferredTerm": "Micromole per Liter per Kilogram per Meter Squared", "submissionValue": "umol/L/(kg/m2)"}, {"conceptId": "C119542", "definition": "Micromoles per liter (concentration), divided by meters squared (surface area).", "preferredTerm": "Micromole per Liter per Meter Squared", "submissionValue": "umol/L/m2"}, {"conceptId": "C85708", "definition": "A unit of substance flow rate equal to one micromole per minute.", "preferredTerm": "Micromole per Minute", "submissionValue": "umol/min", "synonyms": ["mcmol/min"]}]}