{"_links": {"parentPackage": {"href": "/mdr/ct/packages/sendct-2018-03-30", "title": "SEND Controlled Terminology Package 33 Effective 2018-03-30", "type": "Terminology"}, "priorVersion": {"href": "/mdr/ct/packages/sendct-2017-12-22/codelists/C67154", "title": "CDISC SDTM Laboratory Test Name Terminology", "type": "Code List"}, "rootItem": {"href": "/mdr/root/ct/sendct/codelists/C67154", "title": "Version-agnostic anchor resource for codelist C67154", "type": "Root Value Domain"}, "self": {"href": "/mdr/ct/packages/sendct-2018-03-30/codelists/C67154", "title": "CDISC SDTM Laboratory Test Name Terminology", "type": "Code List"}}, "conceptId": "C67154", "definition": "Terminology used for laboratory test names of the CDISC Study Data Tabulation Model.", "extensible": "true", "name": "Laboratory Test Name", "preferredTerm": "CDISC SDTM Laboratory Test Name Terminology", "submissionValue": "LBTEST", "synonyms": ["Laboratory Test Name"], "terms": [{"conceptId": "C92267", "definition": "A measurement of the total active Vitamin D in a biological specimen.", "preferredTerm": "1, 25-Dihydroxyvitamin D Measurement", "submissionValue": "1, 25-Dihydroxyvitamin D", "synonyms": ["1, 25-Dihydroxyvitamin D", "Active Vitamin D"]}, {"conceptId": "C132370", "definition": "A measurement of the 1,3-beta-D-glucan in a biological specimen.", "preferredTerm": "1,3-Beta-D-Glucan Measurement", "submissionValue": "1,3-Beta-D-Glucan", "synonyms": ["1,3-Beta-D-Glucan"]}, {"conceptId": "C124334", "definition": "A measurement of the 1,5-anhydroglucitol in a biological specimen.", "preferredTerm": "1,5-Anhydroglucitol Measurement", "submissionValue": "1,5-Anhydroglucitol", "synonyms": ["1,5-Anhydroglucitol"]}, {"conceptId": "C103344", "definition": "A measurement of the 11-dehydro-thromboxane B2 in a biological specimen.", "preferredTerm": "11-Dehydro-Thromboxane B2 Measurement", "submissionValue": "11-Dehydro-Thromboxane B2", "synonyms": ["11-Dehydro-Thromboxane B2"]}, {"conceptId": "C142293", "definition": "A measurement of 11-nor-delta-9-tetrahydrocannabinol-9-carboxylic acid present in a biological specimen.", "preferredTerm": "11-Nor-Delta9-THC-9-Carboxylic Acid Measurement", "submissionValue": "11-Nor-Delta9-THC-9-Carboxylic Acid", "synonyms": ["11-Nor-Delta9-THC-9-Carboxylic Acid", "THC-COOH"]}, {"conceptId": "C147370", "definition": "A measurement of the 17-Hydroxyprogesterone in a biological specimen.", "preferredTerm": "17-Hydroxyprogesterone Measurement", "submissionValue": "17-Hydroxyprogesterone", "synonyms": ["17-Hydroxyprogesterone", "17-OHP"]}, {"conceptId": "C147446", "definition": "A measurement of the total inactive vitamin D2 and vitamin D3 in a biological specimen.", "preferredTerm": "25-Hydroxyvitamin D2 and 25-Hydroxyvitamin D3 Measurement", "submissionValue": "25-Hydroxyvit D2 + 25-Hydroxyvit D3", "synonyms": ["25-Hydroxyvit D2 + 25-Hydroxyvit D3"]}, {"conceptId": "C92268", "definition": "A measurement of the total inactive Vitamin D in a biological specimen.", "preferredTerm": "25-Hydroxyvitamin D Measurement", "submissionValue": "25-Hydroxyvitamin D", "synonyms": ["25-Hydroxyvitamin D", "Calcidiol", "Inactive Vitamin D"]}, {"conceptId": "C103345", "definition": "A measurement of the 3,4-dihydroxyphenylacetic acid in a biological specimen.", "preferredTerm": "3,4-Dihydroxyphenylacetic Acid Measurement", "submissionValue": "3,4-Dihydroxyphenylacetic Acid", "synonyms": ["3,4-Dihydroxyphenylacetic Acid"]}, {"conceptId": "C101017", "definition": "A measurement of the catecholamine metabolite, 3,4-Dihydroxyphenylglycol in a biological specimen.", "preferredTerm": "3,4-Dihydroxyphenylglycol Measurement", "submissionValue": "3,4-Dihydroxyphenylglycol", "synonyms": ["3,4-Dihydroxyphenylglycol", "3.4 Dihydroxyphenylglycol"]}, {"conceptId": "C75359", "definition": "A measurement of the 3,4-methylenedioxymethamphetamine (MDMA) in a biological specimen.", "preferredTerm": "3,4-Methylenedioxymethamphetamine Measurement", "submissionValue": "3,4-methylenedioxymethamphetamine", "synonyms": ["3,4-methylenedioxymethamphetamine", "Ecstasy"]}, {"conceptId": "C79437", "definition": "A measurement of the 5'-nucleotidase in a biological specimen.", "preferredTerm": "5 Prime Nucleotidase Measurement", "submissionValue": "5 Prime Nucleotidase", "synonyms": ["5 Prime Nucleotidase", "5'-Ribonucleotide Phosphohydrolase"]}, {"conceptId": "C112217", "definition": "A measurement of 5-hydroxyindoleacetic acid in a biological specimen.", "preferredTerm": "5-Hydroxyindoleacetic Acid Measurement", "submissionValue": "5-Hydroxyindoleacetic Acid", "synonyms": ["5-Hydroxyindoleacetate", "5-Hydroxyindoleacetic Acid"]}, {"conceptId": "C74876", "definition": "A measurement of the 6-monoacetylmorphine present in a biological specimen.", "preferredTerm": "6-Monoacetylmorphine Measurement", "submissionValue": "6-Monoacetylmorphine", "synonyms": ["6-Monoacetylmorphine"]}, {"conceptId": "C119291", "definition": "A relative measurement (ratio or percentage) of the prostaglandin F2 alpha isoform 8 to creatinine in a biological specimen.", "preferredTerm": "8-Iso-Prostaglandin F2 Alpha to Creatinine Ratio Measurement", "submissionValue": "8-Iso-PGF2alpha/Creatinine", "synonyms": ["8-Iso-PGF2alpha/Creatinine"]}, {"conceptId": "C119292", "definition": "A measurement of the prostaglandin F2 alpha isoform 8 in a biological specimen.", "preferredTerm": "8-Iso-Prostaglandin F2 Alpha Measurement", "submissionValue": "8-Iso-Prostaglandin F2 Alpha", "synonyms": ["8-Iso-Prostaglandin F2 Alpha"]}, {"conceptId": "C96565", "definition": "A relative measurement (ratio or percentage) of alpha fetoprotein L3 to total alpha fetoprotein in a biological specimen.", "preferredTerm": "Alpha Fetoprotein L3 to Total Alpha Fetoprotein Ratio Measurement", "submissionValue": "A Fetoprotein L3/A Fetoprotein", "synonyms": ["A Fetoprotein L3/A Fetoprotein"]}, {"conceptId": "C111123", "definition": "A measurement of the a proliferation-inducing ligand in a biological specimen.", "preferredTerm": "A Proliferation-Inducing Ligand Measurement", "submissionValue": "A Proliferation-Inducing Ligand", "synonyms": ["A Proliferation-Inducing Ligand", "CD256", "TNFSF13", "Tumor Necrosis Factor Ligand Superfamily Member 13"]}, {"conceptId": "C130144", "definition": "A measurement of the Aspergillus fumigatus antigen IgE antibody in a biological specimen.", "preferredTerm": "Aspergillus fumigatus Antigen IgE Antibody Measurement", "submissionValue": "A. fumigatus Antigen IgE Antibody", "synonyms": ["A. fumigatus Antigen IgE Antibody"]}, {"conceptId": "C130145", "definition": "A measurement of the Aspergillus fumigatus antigen IgG antibody in a biological specimen.", "preferredTerm": "Aspergillus fumigatus Antigen IgG Antibody Measurement", "submissionValue": "A. fumigatus Antigen IgG Antibody", "synonyms": ["A. fumigatus Antigen IgG Antibody"]}, {"conceptId": "C130151", "definition": "A measurement of the Alternaria tenuis alternata antigen IgA antibody in a biological specimen.", "preferredTerm": "Alternaria tenuis alternata Antigen IgA Antibody Measurement", "submissionValue": "A. tenuis alternata Antigen IgA AB", "synonyms": ["A. tenuis alternata Antigen IgA AB"]}, {"conceptId": "C130150", "definition": "A measurement of the Alternaria tenuis alternata antigen IgE antibody in a biological specimen.", "preferredTerm": "Alternaria tenuis alternata Antigen IgE Antibody Measurement", "submissionValue": "A. tenuis alternata Antigen IgE AB", "synonyms": ["A. tenuis alternata Antigen IgE AB"]}, {"conceptId": "C130152", "definition": "A measurement of the Alternaria tenuis alternata antigen IgG antibody in a biological specimen.", "preferredTerm": "Alternaria tenuis alternata Antigen IgG Antibody Measurement", "submissionValue": "A. tenuis alternata Antigen IgG AB", "synonyms": ["A. tenuis alternata Antigen IgG AB"]}, {"conceptId": "C130153", "definition": "A measurement of the Alternaria tenuis alternata antigen IgG4 antibody in a biological specimen.", "preferredTerm": "Alternaria tenuis alternata Antigen IgG4 Antibody Measurement", "submissionValue": "A. tenuis alternata Antigen IgG4 AB", "synonyms": ["A. tenuis alternata Antigen IgG4 AB"]}, {"conceptId": "C135397", "definition": "The characterization of the ABO blood group A1 subtype in an individual. (NCI)", "preferredTerm": "ABO A1 Subtype Determination", "submissionValue": "ABO A1 Subtype", "synonyms": ["ABO A1 Subtype"]}, {"conceptId": "C125939", "definition": "The characterization of the blood type of an individual by testing for the presence of A antigen and B antigen on the surface of red blood cells.", "preferredTerm": "ABO Blood Group Determination", "submissionValue": "ABO Blood Group", "synonyms": ["ABO Blood Group"]}, {"conceptId": "C147297", "definition": "A relative measurement (ratio or percentage) of the acetylcholine receptor modulation antibody to the total acetylcholine receptor antibodies in a biological specimen.", "preferredTerm": "Acetylcholine Receptor Modulation Antibody to Acetylcholine Receptor Antibody Ratio Measurement", "submissionValue": "ACH Receptor Modulatn Ab/ACH Receptor Ab", "synonyms": ["ACH Receptor Modulation Antibody/ACH Receptor Antibody", "ACH Receptor Modulatn Ab/ACH Receptor Ab"]}, {"conceptId": "C147290", "definition": "A measurement of the ADAM metallopeptidase domain 8 protein in a biological specimen.", "preferredTerm": "ADAM Metallopeptidase Domain 8 Measurement", "submissionValue": "ADAM Metallopeptidase Domain 8", "synonyms": ["A Disintegrin And Metalloproteinase Domain 8", "ADAM Metallopeptidase Domain 8", "CD156a Antigen"]}, {"conceptId": "C106498", "definition": "A relative measurement (ratio or percentage) of the alanine aminotransferase (ALT) to aspartate aminotransferase (AST) present in a sample.", "preferredTerm": "Alanine Aminotransferase to Aspartate Aminotransferase Ratio Measurement", "submissionValue": "ALT/AST", "synonyms": ["ALT/AST"]}, {"conceptId": "C132365", "definition": "A measurement of the alpha-methylacyl coenzyme A racemase mRNA in a biological specimen.", "preferredTerm": "Alpha-Methylacyl Coenzyme A Racemase mRNA Measurement", "submissionValue": "AMACR mRNA", "synonyms": ["AMACR mRNA"]}, {"conceptId": "C111124", "definition": "A measurement of the abnormal cells in a biological specimen.", "preferredTerm": "Abnormal Cell Count", "submissionValue": "Abnormal Cells", "synonyms": ["Abnormal Cells"]}, {"conceptId": "C74699", "definition": "A measurement of the acanthocytes in a biological specimen.", "preferredTerm": "Acanthocyte Count", "submissionValue": "Acanthocytes", "synonyms": ["Acanthocytes"]}, {"conceptId": "C74633", "definition": "A relative measurement (ratio or percentage) of acanthocytes to all erythrocytes in a biological specimen.", "preferredTerm": "Acanthocyte to Erythrocyte Ratio Measurement", "submissionValue": "Acanthocytes/Erythrocytes", "synonyms": ["Acanthocytes/Erythrocytes"]}, {"conceptId": "C135398", "definition": "A measurement of the acetaminophen in a biological specimen.", "preferredTerm": "Acetaminophen Measurement", "submissionValue": "Acetaminophen", "synonyms": ["Acetaminophen", "Paracetamol"]}, {"conceptId": "C92247", "definition": "A measurement of the acetoacetic acid in a biological specimen.", "preferredTerm": "Acetoacetic Acid Measurement", "submissionValue": "Acetoacetic Acid", "synonyms": ["Acetoacetate", "Acetoacetic Acid"]}, {"conceptId": "C147288", "definition": "A measurement of the acetone in a biological specimen.", "preferredTerm": "Acetone Measurement", "submissionValue": "Acetone", "synonyms": ["Acetone"]}, {"conceptId": "C74838", "definition": "A measurement of the acetylcholine hormone in a biological specimen.", "preferredTerm": "Acetylcholine Measurement", "submissionValue": "Acetylcholine", "synonyms": ["Acetylcholine"]}, {"conceptId": "C96559", "definition": "A measurement of the acetylcholine receptor antibody in a biological specimen.", "preferredTerm": "Acetylcholine Receptor Antibody Measurement", "submissionValue": "Acetylcholine Receptor Antibody", "synonyms": ["Acetylcholine Receptor Antibody"]}, {"conceptId": "C96560", "definition": "A measurement of the acetylcholinesterase in a biological specimen.", "preferredTerm": "Acetylcholinesterase Measurement", "submissionValue": "Acetylcholinesterase", "synonyms": ["Acetylcholinesterase"]}, {"conceptId": "C80163", "definition": "A measurement of the acid phosphatase in a biological specimen.", "preferredTerm": "Acid Phosphatase Measurement", "submissionValue": "Acid Phosphatase", "synonyms": ["Acid Phosphatase"]}, {"conceptId": "C74912", "definition": "A measurement of the acid urate crystals present in a biological specimen.", "preferredTerm": "Acid Urate Crystal Measurement", "submissionValue": "Acid Urate Crystals", "synonyms": ["Acid Urate Crystals"]}, {"conceptId": "C103348", "definition": "A measurement of the inhibition of blood coagulation in response to anticoagulant therapies.", "preferredTerm": "Activated Coagulation Time", "submissionValue": "Activated Coagulation Time", "synonyms": ["Activated Clotting Time", "Activated Coagulation Time"]}, {"conceptId": "C98862", "definition": "A relative measurement (ratio or percentage) of the subject's partial thromboplastin time to a standard or control partial thromboplastin time.", "preferredTerm": "Activated PTT/Standard Ratio Measurement", "submissionValue": "Activated PTT/Standard", "synonyms": ["Activated PTT/Standard", "Activated PTT/Standard PTT", "Activated Partial Thromboplastin Time/Standard Thromboplastin Time"]}, {"conceptId": "C38462", "definition": "A measurement of the length of time that it takes for clotting to occur when reagents are added to a plasma specimen. The test is partial due to the absence of tissue factor (Factor III) from the reaction mixture.", "preferredTerm": "Partial Thromboplastin Time", "submissionValue": "Activated Partial Thromboplastin Time", "synonyms": ["Activated Partial Thromboplastin Time"]}, {"conceptId": "C100471", "definition": "A measurement of the resistance in the anticoagulation response to activated protein C in a biological specimen.", "preferredTerm": "Activated Protein C Resistance Measurement", "submissionValue": "Activated Protein C Resistance", "synonyms": ["Activated Protein C Resistance", "Factor V Leiden Screen"]}, {"conceptId": "C112219", "definition": "A measurement of active ghrelin in a biological specimen.", "preferredTerm": "Active Ghrelin Measurement", "submissionValue": "Active Ghrelin", "synonyms": ["Active Ghrelin"]}, {"conceptId": "C92286", "definition": "A measurement of the acyl coenzyme A oxidase in a biological specimen.", "preferredTerm": "Acyl Coenzyme A Oxidase Measurement", "submissionValue": "Acyl Coenzyme A Oxidase", "synonyms": ["Acyl CoA Oxidase", "Acyl Coenzyme A Oxidase", "Fatty Acyl Coenzyme A Oxidase"]}, {"conceptId": "C147289", "definition": "A relative measurement (ratio or percentage) of the acylcarnitine to free carnitine in a biological specimen.", "preferredTerm": "Acylcarnitine to Free Carnitine Ratio Measurement", "submissionValue": "Acylcarnitine/Carnitine, Free", "synonyms": ["Acylcarnitine/Carnitine, Free"]}, {"conceptId": "C102257", "definition": "A measurement of the adenosine diphosphate in a biological specimen.", "preferredTerm": "Adenosine Diphosphate Measurement", "submissionValue": "Adenosine Diphosphate", "synonyms": ["Adenosine Diphosphate"]}, {"conceptId": "C147307", "definition": "A measurement of the adenosine triphosphate in a biological specimen.", "preferredTerm": "Adenosine Triphosphate Measurement", "submissionValue": "Adenosine Triphosphate", "synonyms": ["Adenosine Triphosphate"]}, {"conceptId": "C111125", "definition": "A measurement of the adenovirus antibody in a biological specimen.", "preferredTerm": "Adenovirus Antibody Measurement", "submissionValue": "Adenovirus Antibody", "synonyms": ["Adenovirus Antibody"]}, {"conceptId": "C74839", "definition": "A measurement of the total adiponectin hormone in a biological specimen.", "preferredTerm": "Adiponectin Measurement", "submissionValue": "Adiponectin", "synonyms": ["Adiponectin"]}, {"conceptId": "C132363", "definition": "A measurement of the high molecular weight adiponectin hormone in a biological specimen.", "preferredTerm": "High Molecular Weight Adiponectin Measurement", "submissionValue": "Adiponectin, High Molecular Weight", "synonyms": ["Adiponectin, High Molecular Weight"]}, {"conceptId": "C74780", "definition": "A measurement of the adrenocorticotropic hormone in a biological specimen.", "preferredTerm": "Adrenocorticotropic Hormone Measurement", "submissionValue": "Adrenocorticotropic Hormone", "synonyms": ["Adrenocorticotropic Hormone", "Corticotropin"]}, {"conceptId": "C112220", "definition": "A measurement of the 846 epitope present on the chondroitin sulfate chains of aggrecan in a biological specimen.", "preferredTerm": "Aggrecan Chondroitin Sulfate Epitope 846 Measurement", "submissionValue": "Aggrecan Chondroitin Sulfate Epitope 846", "synonyms": ["846-Epitope", "Aggrecan Chondroitin Sulfate Epitope 846", "CS846", "Chondroitin Sulfate Epitope 846", "Chondroitin Sulfate Proteoglycan 1 Epitope 846"]}, {"conceptId": "C116200", "definition": "A measurement of the agranular neutrophils in a biological specimen.", "preferredTerm": "Agranular Neutrophils Measurement", "submissionValue": "Agranular Neutrophils", "synonyms": ["Agranular Neutrophils"]}, {"conceptId": "C122091", "definition": "A measurement of the alanine in a biological specimen.", "preferredTerm": "Alanine Measurement", "submissionValue": "Alanine", "synonyms": ["Alanine"]}, {"conceptId": "C100430", "definition": "A measurement of the alanine aminopeptidase in a biological specimen.", "preferredTerm": "Alanine Aminopeptidase Measurement", "submissionValue": "Alanine Aminopeptidase", "synonyms": ["Alanine Aminopeptidase"]}, {"conceptId": "C64433", "definition": "A measurement of the alanine aminotransferase in a biological specimen.", "preferredTerm": "Alanine Aminotransferase Measurement", "submissionValue": "Alanine Aminotransferase", "synonyms": ["Alanine Aminotransferase", "SGPT"]}, {"conceptId": "C64431", "definition": "A measurement of the albumin protein in a biological specimen.", "preferredTerm": "Albumin Measurement", "submissionValue": "Albumin", "synonyms": ["Albumin", "Microalbumin"]}, {"conceptId": "C147293", "definition": "A measurement of the albumin clearance in a biological specimen.", "preferredTerm": "Albumin Clearance", "submissionValue": "Albumin Clearance", "synonyms": ["Albumin Clearance"]}, {"conceptId": "C117829", "definition": "A measurement of the amount of albumin being excreted in urine over a defined period of time (e.g. one hour).", "preferredTerm": "Albumin Urine Excretion Rate", "submissionValue": "Albumin Excretion Rate", "synonyms": ["Albumin Excretion Rate"]}, {"conceptId": "C74761", "definition": "A relative measurement (ratio) of the albumin to the creatinine in a biological specimen.", "preferredTerm": "Albumin To Creatinine Protein Ratio Measurement", "submissionValue": "Albumin/Creatinine", "synonyms": ["Albumin/Creatinine", "Microalbumin/Creatinine Ratio"]}, {"conceptId": "C74894", "definition": "The ratio of albumin to globulin in a biological specimen.", "preferredTerm": "Albumin to Globulin Ratio Measurement", "submissionValue": "Albumin/Globulin", "synonyms": ["Albumin/Globulin"]}, {"conceptId": "C103453", "definition": "A relative measurement (ratio or percentage) of the albumin to total protein in a biological specimen.", "preferredTerm": "Albumin to Total Protein Ratio Measurement", "submissionValue": "Albumin/Total Protein", "synonyms": ["Albumin/Total Protein"]}, {"conceptId": "C74731", "definition": "A measurement of the aldolase enzyme in a biological specimen.", "preferredTerm": "Aldolase Measurement", "submissionValue": "Aldolase", "synonyms": ["Aldolase"]}, {"conceptId": "C74841", "definition": "A measurement of the aldosterone hormone in a biological specimen.", "preferredTerm": "Aldosterone Measurement", "submissionValue": "Aldosterone", "synonyms": ["Aldosterone"]}, {"conceptId": "C124338", "definition": "A relative measurement (ratio) of the aldosterone to renin activity in a biological specimen.", "preferredTerm": "Aldosterone to Renin Activity Ratio Measurement", "submissionValue": "Aldosterone/Renin Activity", "synonyms": ["Aldosterone/Renin Activity"]}, {"conceptId": "C147294", "definition": "A relative measurement (ratio or percentage) of the bone specific alkaline phosphatase isoform to total alkaline phosphatase in a biological specimen.", "preferredTerm": "Bone Alkaline Phosphatase to Total Alkaline Phosphatase Ratio Measurement", "submissionValue": "Alk Phos, Bone/Total Alk Phos", "synonyms": ["Alk Phos, Bone/Total Alk Phos", "Alkaline Phosphatase, Bone/Total Alkaline Phosphatase"]}, {"conceptId": "C147295", "definition": "A relative measurement (ratio or percentage) of the intestinal specific alkaline phosphatase isoform to total alkaline phosphatase in a biological specimen.", "preferredTerm": "Intestinal Alkaline Phosphatase to Total Alkaline Phosphatase Ratio Measurement", "submissionValue": "Alk Phos, Intestinal/Total Alk Phos", "synonyms": ["Alk Phos, Intestinal/Total Alk Phos", "Alkaline Phosphatase, Intestinal/Total Alkaline Phosphatase"]}, {"conceptId": "C147296", "definition": "A relative measurement (ratio or percentage) of the liver specific alkaline phosphatase isoform to total alkaline phosphatase in a biological specimen.", "preferredTerm": "Liver Alkaline Phosphatase to Total Alkaline Phosphatase Ratio Measurement", "submissionValue": "Alk Phos, Liver/Total Alk Phos", "synonyms": ["Alk Phos, Liver/Total Alk Phos", "Alkaline Phosphatase, Liver/Total Alkaline Phosphatase"]}, {"conceptId": "C64432", "definition": "A measurement of the alkaline phosphatase in a biological specimen.", "preferredTerm": "Alkaline Phosphatase Measurement", "submissionValue": "Alkaline Phosphatase", "synonyms": ["Alkaline Phosphatase"]}, {"conceptId": "C139091", "definition": "A measurement of the alkaline phosphatase isoenzyme in a biological specimen.", "preferredTerm": "Alkaline Phosphatase Isoenzyme Measurement", "submissionValue": "Alkaline Phosphatase Isoenzyme", "synonyms": ["Alkaline Phosphatase Isoenzyme"]}, {"conceptId": "C79438", "definition": "A relative measurement (ratio or percentage) of the alkaline phosphatase to creatinine in a biological specimen.", "preferredTerm": "Alkaline Phosphatase to Creatinine Ratio Measurement", "submissionValue": "Alkaline Phosphatase/Creatinine", "synonyms": ["Alkaline Phosphatase/Creatinine"]}, {"conceptId": "C74732", "definition": "A measurement of the alpha fetoprotein in a biological specimen.", "preferredTerm": "Alpha-fetoprotein Measurement", "submissionValue": "Alpha Fetoprotein", "synonyms": ["Alpha Fetoprotein", "Alpha-1-Fetoprotein"]}, {"conceptId": "C106499", "definition": "A measurement of the alpha fetoprotein activity in a biological specimen.", "preferredTerm": "Alpha Fetoprotein Activity Measurement", "submissionValue": "Alpha Fetoprotein Activity", "synonyms": ["Alpha Fetoprotein Activity"]}, {"conceptId": "C147291", "definition": "A measurement of alpha fetoprotein, which has been adjusted for body weight, in a biological specimen.", "preferredTerm": "Alpha Fetoprotein Adjusted for Body Weight Measurement", "submissionValue": "Alpha Fetoprotein Adj for Body Weight", "synonyms": ["Alpha Fetoprotein Adj for Body Weight"]}, {"conceptId": "C96562", "definition": "A measurement of the alpha fetoprotein L1 in a biological specimen.", "preferredTerm": "Alpha Fetoprotein L1 Measurement", "submissionValue": "Alpha Fetoprotein L1", "synonyms": ["Alpha Fetoprotein L1"]}, {"conceptId": "C96563", "definition": "A measurement of the alpha fetoprotein L2 in a biological specimen.", "preferredTerm": "Alpha Fetoprotein L2 Measurement", "submissionValue": "Alpha Fetoprotein L2", "synonyms": ["Alpha Fetoprotein L2"]}, {"conceptId": "C96564", "definition": "A measurement of the alpha fetoprotein L3 in a biological specimen.", "preferredTerm": "Alpha Fetoprotein L3 Measurement", "submissionValue": "Alpha Fetoprotein L3", "synonyms": ["Alpha Fetoprotein L3"]}, {"conceptId": "C79433", "definition": "A measurement of the alpha form of glutathione S-transferase in a biological specimen.", "preferredTerm": "Alpha Glutathione-S-Transferase Measurement", "submissionValue": "Alpha Glutathione-S-Transferase", "synonyms": ["Alpha Glutathione-S-Transferase"]}, {"conceptId": "C111126", "definition": "A measurement of the alpha-hydroxybutyrate dehydrogenase in a biological specimen.", "preferredTerm": "Alpha Hydroxybutyrate Dehydrogenase Measurement", "submissionValue": "Alpha Hydroxybutyrate Dehydrogenase", "synonyms": ["Alpha Hydroxybutyrate Dehydrogenase"]}, {"conceptId": "C142272", "definition": "A measurement of the alpha synuclein protein in a biological specimen.", "preferredTerm": "Alpha Synuclein Protein Measurement", "submissionValue": "Alpha Synuclein Protein", "synonyms": ["Alpha Synuclein Protein"]}, {"conceptId": "C103349", "definition": "A measurement of the alpha tocopherol in a biological specimen.", "preferredTerm": "Alpha Tocopherol Measurement", "submissionValue": "Alpha Tocopherol", "synonyms": ["Alpha Tocopherol"]}, {"conceptId": "C103350", "definition": "A relative measurement (ratio or percentage) of alpha-tocopherol to the total vitamin E in a biological specimen.", "preferredTerm": "Alpha Tocopherol to Vitamin E Ratio Measurement", "submissionValue": "Alpha Tocopherol/Vitamin E", "synonyms": ["Alpha Tocopherol/Vitamin E"]}, {"conceptId": "C100429", "definition": "A measurement of the alpha-1 acid glycoprotein in a biological specimen.", "preferredTerm": "Alpha-1 Acid Glycoprotein Measurement", "submissionValue": "Alpha-1 Acid Glycoprotein", "synonyms": ["Alpha-1 Acid Glycoprotein"]}, {"conceptId": "C80167", "definition": "A measurement of the alpha-1 antitrypsin in a biological specimen.", "preferredTerm": "Alpha-1 Antitrypsin Measurement", "submissionValue": "Alpha-1 Antitrypsin", "synonyms": ["Alpha-1 Antitrypsin", "Serum Trypsin Inhibitor"]}, {"conceptId": "C92252", "definition": "A measurement of the proteins contributing to the alpha 1 fraction in a biological specimen.", "preferredTerm": "Alpha-1 Globulin Measurement", "submissionValue": "Alpha-1 Globulin", "synonyms": ["A1-Globulin", "Alpha-1 Globulin"]}, {"conceptId": "C92253", "definition": "A relative measurement (ratio or percentage) of alpha-1-fraction proteins to total proteins in a biological specimen.", "preferredTerm": "Alpha-1 Globulin to Total Protein Ratio Measurement", "submissionValue": "Alpha-1 Globulin/Total Protein", "synonyms": ["Alpha-1 Globulin/Total Protein"]}, {"conceptId": "C100461", "definition": "A measurement of the alpha-1 microglobulin in a biological specimen.", "preferredTerm": "Alpha-1 Microglobulin Measurement", "submissionValue": "Alpha-1 Microglobulin", "synonyms": ["Alpha-1 Microglobulin", "Protein HC"]}, {"conceptId": "C100462", "definition": "A relative measurement (ratio or percentage) of the alpha-1 microglobulin to creatinine in a biological specimen.", "preferredTerm": "Alpha-1 Microglobulin to Creatinine Ratio Measurement", "submissionValue": "Alpha-1 Microglobulin/Creatinine", "synonyms": ["Alpha-1 Microglobulin/Creatinine"]}, {"conceptId": "C103351", "definition": "A measurement of the alpha-2 antiplasmin in a biological specimen.", "preferredTerm": "Alpha-2 Antiplasmin Measurement", "submissionValue": "Alpha-2 Antiplasmin", "synonyms": ["Alpha-2 Antiplasmin", "Alpha-2 Plasmin Inhibitor"]}, {"conceptId": "C122094", "definition": "A measurement of the alpha-2 antiplasmin activity in a biological specimen.", "preferredTerm": "Alpha-2 Antiplasmin Activity Measurement", "submissionValue": "Alpha-2 Antiplasmin Activity", "synonyms": ["Alpha-2 Antiplasmin Activity"]}, {"conceptId": "C92254", "definition": "A measurement of the proteins contributing to the alpha 2 fraction in a biological specimen.", "preferredTerm": "Alpha-2 Globulin Measurement", "submissionValue": "Alpha-2 Globulin", "synonyms": ["A2-Globulin", "Alpha-2 Globulin"]}, {"conceptId": "C92255", "definition": "A relative measurement (ratio or percentage) of alpha-2-fraction proteins to total proteins in a biological specimen.", "preferredTerm": "Alpha-2 Globulin to Total Protein Ratio Measurement", "submissionValue": "Alpha-2 Globulin/Total Protein", "synonyms": ["Alpha-2 Globulin/Total Protein"]}, {"conceptId": "C80168", "definition": "A measurement of the alpha-2 macroglobulin in a biological specimen.", "preferredTerm": "Alpha-2 Macroglobulin Measurement", "submissionValue": "Alpha-2 Macroglobulin", "synonyms": ["Alpha-2 Macroglobulin"]}, {"conceptId": "C119278", "definition": "A measurement of the amount of Alpha Glutathione-S-Transferase being excreted in urine over a defined period of time (e.g. one hour).", "preferredTerm": "Alpha-GST Excretion Rate", "submissionValue": "Alpha-GST Excretion Rate", "synonyms": ["Alpha-GST Excretion Rate"]}, {"conceptId": "C132364", "definition": "A measurement of the alpha-methylacyl coenzyme A racemase in a biological specimen.", "preferredTerm": "Alpha-Methylacyl Coenzyme A Racemase Measurement", "submissionValue": "Alpha-Methylacyl Coenzyme A Racemase", "synonyms": ["Alpha-Methylacyl Coenzyme A Racemase"]}, {"conceptId": "C147299", "definition": "A measurement of the alpha-N-acetylglucosaminidase in a biological specimen.", "preferredTerm": "Alpha-N-acetylglucosaminidase Measurement", "submissionValue": "Alpha-N-acetylglucosaminidase", "synonyms": ["Alpha-N-acetylglucosaminidase"]}, {"conceptId": "C75370", "definition": "A measurement of the alprazolam present in a biological specimen.", "preferredTerm": "Alprazolam Measurement", "submissionValue": "Alprazolam", "synonyms": ["Alprazolam"]}, {"conceptId": "C111127", "definition": "A measurement of aluminum in a biological specimen.", "preferredTerm": "Aluminum Measurement", "submissionValue": "Aluminum", "synonyms": ["Al", "Aluminum"]}, {"conceptId": "C130137", "definition": "A measurement of the Periplaneta americana antigen IgA antibody in a biological specimen.", "preferredTerm": "American Cockroach Antigen IgA Antibody Measurement", "submissionValue": "American Cockroach Antigen IgA Antibody", "synonyms": ["American Cockroach Antigen IgA Antibody"]}, {"conceptId": "C130136", "definition": "A measurement of the Periplaneta americana antigen IgE antibody in a biological specimen.", "preferredTerm": "American Cockroach Antigen IgE Antibody Measurement", "submissionValue": "American Cockroach Antigen IgE Antibody", "synonyms": ["American Cockroach Antigen IgE Antibody"]}, {"conceptId": "C130138", "definition": "A measurement of the Periplaneta americana antigen IgG antibody in a biological specimen.", "preferredTerm": "American Cockroach Antigen IgG Antibody Measurement", "submissionValue": "American Cockroach Antigen IgG Antibody", "synonyms": ["American Cockroach Antigen IgG Antibody"]}, {"conceptId": "C130139", "definition": "A measurement of the Periplaneta americana antigen IgG4 antibody in a biological specimen.", "preferredTerm": "American Cockroach Antigen IgG4 Antibody Measurement", "submissionValue": "American Cockroach Antigen IgG4 Antibody", "synonyms": ["American Cockroach Antigen IgG4 Antibody"]}, {"conceptId": "C74799", "definition": "A measurement of the ammonia in a biological specimen.", "preferredTerm": "Ammonia Measurement", "submissionValue": "Ammonia", "synonyms": ["Ammonia", "NH3"]}, {"conceptId": "C105590", "definition": "A measurement of the ammonium biurate crystals present in a biological specimen.", "preferredTerm": "Ammonium Biurate Crystals Measurement", "submissionValue": "Ammonium Biurate Crystals", "synonyms": ["Acid Ammonium Urate Crystals", "Ammonium Biurate Crystals", "Ammonium Urate Crystals"]}, {"conceptId": "C74759", "definition": "A measurement of the ammonium oxalate crystals present in a urine specimen.", "preferredTerm": "Urine Ammonium Oxalate Crystal Measurement", "submissionValue": "Ammonium Oxalate Crystals", "synonyms": ["Ammonium Oxalate Crystals"]}, {"conceptId": "C75363", "definition": "A measurement of the amobarbital present in a biological specimen.", "preferredTerm": "Amobarbital Measurement", "submissionValue": "Amobarbital", "synonyms": ["Amobarbital"]}, {"conceptId": "C74665", "definition": "A measurement of the amorphous (Note: phosphate or urate, depending on pH) crystals present in a biological specimen.", "preferredTerm": "Amorphous Crystal Measurement", "submissionValue": "Amorphous Crystals", "synonyms": ["Amorphous Crystals"]}, {"conceptId": "C92243", "definition": "A measurement of the amorphous phosphate crystals in a biological specimen.", "preferredTerm": "Amorphous Phosphate Crystals Measurement", "submissionValue": "Amorphous Phosphate Crystals", "synonyms": ["Amorphous Phosphate Crystals"]}, {"conceptId": "C74666", "definition": "A measurement of the amorphous sediment present in a biological specimen.", "preferredTerm": "Amorphous Sediment Measurement", "submissionValue": "Amorphous Sediment", "synonyms": ["Amorphous Debris", "Amorphous Sediment"]}, {"conceptId": "C92244", "definition": "A measurement of the amorphous urate crystals in a biological specimen.", "preferredTerm": "Amorphous Urate Crystals Measurement", "submissionValue": "Amorphous Urate Crystals", "synonyms": ["Amorphous Urate Crystals"]}, {"conceptId": "C74687", "definition": "A measurement of any amphetamine class drug present in a biological specimen.", "preferredTerm": "Amphetamine Drug Class Measurement", "submissionValue": "Amphetamine", "synonyms": ["Amphetamine"]}, {"conceptId": "C64434", "definition": "A measurement of the total enzyme amylase in a biological specimen.", "preferredTerm": "Amylase Measurement", "submissionValue": "Amylase", "synonyms": ["Amylase"]}, {"conceptId": "C98767", "definition": "A measurement of the pancreatic enzyme amylase in a biological specimen.", "preferredTerm": "Pancreatic Amylase Measurement", "submissionValue": "Amylase, Pancreatic", "synonyms": ["Amylase, Pancreatic"]}, {"conceptId": "C98780", "definition": "A measurement of the salivary enzyme amylase in a biological specimen.", "preferredTerm": "Salivary Amylase Measurement", "submissionValue": "Amylase, Salivary", "synonyms": ["Amylase, Salivary"]}, {"conceptId": "C125940", "definition": "A measurement of the total amyloid a (official name is Serum Amyloid A) in a biological specimen.", "preferredTerm": "Amyloid A Measurement", "submissionValue": "Amyloid A", "synonyms": ["Amyloid A", "Serum Amyloid A"]}, {"conceptId": "C119268", "definition": "A measurement of the amyloid alpha precursor protein present in a biological specimen.", "preferredTerm": "Amyloid Alpha Precursor Protein Measurement", "submissionValue": "Amyloid Alpha Precursor Protein", "synonyms": ["Amyloid Alpha Precursor Protein"]}, {"conceptId": "C103352", "definition": "A measurement of amyloid beta protein which is composed of peptides 1 to 38 in a biological specimen.", "preferredTerm": "Amyloid Beta 1-38 Measurement", "submissionValue": "Amyloid Beta 1-38", "synonyms": ["Amyloid Beta 1-38", "Amyloid Beta 38", "Amyloid Beta 38 Protein"]}, {"conceptId": "C103353", "definition": "A measurement of amyloid beta protein which is composed of peptides 1 to 40 in a biological specimen.", "preferredTerm": "Amyloid Beta 1-40 Measurement", "submissionValue": "Amyloid Beta 1-40", "synonyms": ["Amyloid Beta 1-40", "Amyloid Beta 40", "Amyloid Beta 40 Protein"]}, {"conceptId": "C84809", "definition": "A measurement of amyloid beta protein which is composed of peptides 1 to 42 in a biological specimen.", "preferredTerm": "Beta Amyloid 42 Measurement", "submissionValue": "Amyloid Beta 1-42", "synonyms": ["Amyloid Beta 1-42", "Amyloid Beta 42", "Amyloid Beta 42 Protein"]}, {"conceptId": "C105438", "definition": "A measurement of the amyloid beta precursor protein present in a biological specimen.", "preferredTerm": "Amyloid Beta Precursor Protein Measurement", "submissionValue": "Amyloid Beta Precursor Protein", "synonyms": ["Amyloid Beta Precursor", "Amyloid Beta Precursor Protein", "Amyloid Precursor Beta", "Amyloid Precursor Protein"]}, {"conceptId": "C81998", "definition": "A measurement of the total amyloid P in a biological specimen.", "preferredTerm": "Amyloid P Measurement", "submissionValue": "Amyloid P", "synonyms": ["Amyloid P"]}, {"conceptId": "C81999", "definition": "A measurement of the total amyloid beta in a biological specimen.", "preferredTerm": "Beta Amyloid Measurement", "submissionValue": "Amyloid, Beta", "synonyms": ["Amyloid, Beta", "Beta Amyloid"]}, {"conceptId": "C147298", "definition": "A measurement of the anabasine in a biological specimen.", "preferredTerm": "Anabasine Measurement", "submissionValue": "Anabasine", "synonyms": ["Anabasine"]}, {"conceptId": "C74842", "definition": "A measurement of the androstenediol metabolite in a biological specimen.", "preferredTerm": "Androstenediol Metabolite Measurement", "submissionValue": "Androstenediol", "synonyms": ["Androstenediol"]}, {"conceptId": "C74843", "definition": "A measurement of the androstenedione hormone in a biological specimen.", "preferredTerm": "Androstenedione Measurement", "submissionValue": "Androstenedione", "synonyms": ["4-Androstenedione", "Androstenedione"]}, {"conceptId": "C111128", "definition": "A measurement of angiopoietin 1 in a biological specimen.", "preferredTerm": "Angiopoietin 1 Measurement", "submissionValue": "Angiopoietin 1", "synonyms": ["Angiopoietin 1"]}, {"conceptId": "C80169", "definition": "A measurement of the angiotensin converting enzyme in a biological specimen.", "preferredTerm": "Angiotensin Converting Enzyme Measurement", "submissionValue": "Angiotensin Converting Enzyme", "synonyms": ["Angiotensin Converting Enzyme"]}, {"conceptId": "C74844", "definition": "A measurement of the angiotensin I hormone in a biological specimen.", "preferredTerm": "Angiotensin I Measurement", "submissionValue": "Angiotensin I", "synonyms": ["Angiotensin I"]}, {"conceptId": "C74845", "definition": "A measurement of the angiotensin II hormone in a biological specimen.", "preferredTerm": "Angiotensin II Measurement", "submissionValue": "Angiotensin II", "synonyms": ["Angiotensin II"]}, {"conceptId": "C74846", "definition": "A measurement of the angiotensinogen hormone in a biological specimen.", "preferredTerm": "Angiotensinogen Measurement", "submissionValue": "Angiotensinogen", "synonyms": ["Angiotensin Precursor", "Angiotensinogen"]}, {"conceptId": "C130112", "definition": "A measurement of the animal mix antigen IgE antibody in a biological specimen.", "preferredTerm": "Animal Mix Antigen IgE Antibody Measurement", "submissionValue": "Animal Mix Antigen IgE Antibody", "synonyms": ["Animal Mix Antigen IgE Antibody"]}, {"conceptId": "C130113", "definition": "A measurement of the animal mix antigen IgG antibody in a biological specimen.", "preferredTerm": "Animal Mix Antigen IgG Antibody Measurement", "submissionValue": "Animal Mix Antigen IgG Antibody", "synonyms": ["Animal Mix Antigen IgG Antibody"]}, {"conceptId": "C74685", "definition": "A computed estimate of the unmeasured anions (those other than the chloride and bicarbonate anions) in a biological specimen.", "preferredTerm": "Anion Gap Measurement", "submissionValue": "Anion Gap", "synonyms": ["Anion Gap"]}, {"conceptId": "C147303", "definition": "A computed estimate of the unmeasured anions (computed as sodium minus the chloride and bicarbonate) in a biological specimen.", "preferredTerm": "Anion Gap 3 Measurement", "submissionValue": "Anion Gap 3", "synonyms": ["Anion Gap 3"]}, {"conceptId": "C147304", "definition": "A computed estimate of the unmeasured anions (computed as the difference between the sum of serum sodium + serum potassium and the sum of the serum bicarbonate+ chloride) in a biological specimen.", "preferredTerm": "Anion Gap 4 Measurement", "submissionValue": "Anion Gap 4", "synonyms": ["Anion Gap 4"]}, {"conceptId": "C74797", "definition": "A measurement of the variability in the size of the red blood cells in a whole blood specimen.", "preferredTerm": "Anisocyte Measurement", "submissionValue": "Anisocytes", "synonyms": ["Anisocytes", "Anisocytosis"]}, {"conceptId": "C81973", "definition": "A measurement of the anti-DNA antibodies in a biological specimen.", "preferredTerm": "Anti-DNA Antibody Measurement", "submissionValue": "Anti-DNA Antibodies", "synonyms": ["Anti-DNA Antibodies", "Anti-ds-DNA Antibodies"]}, {"conceptId": "C74913", "definition": "A measurement of the anti-double stranded DNA antibody in a biological specimen.", "preferredTerm": "Anti-Double Stranded DNA Measurement", "submissionValue": "Anti-Double Stranded DNA", "synonyms": ["Anti-Double Stranded DNA"]}, {"conceptId": "C98706", "definition": "A measurement of the ability of antithrombin to inactivate activated Factor X in a biological specimen. This test is used to monitor low molecular weight or unfractionated heparin levels in a biological specimen.", "preferredTerm": "Anti-Factor Xa Activity Measurement", "submissionValue": "Anti-Factor Xa Activity", "synonyms": ["Anti-Factor Xa Activity"]}, {"conceptId": "C120625", "definition": "A measurement of the anti-Mullerian hormone in a biological specimen.", "preferredTerm": "Anti-Mullerian Hormone Measurement", "submissionValue": "Anti-Mullerian Hormone", "synonyms": ["Anti-Mullerian Hormone"]}, {"conceptId": "C120626", "definition": "A measurement of the anti-neutrophil cytoplasmic antibody in a biological specimen.", "preferredTerm": "Anti-Neutrophil Cytoplasmic Antibody Measurement", "submissionValue": "Anti-Neutrophil Cytoplasmic Antibody", "synonyms": ["Anti-Neutrophil Cytoplasmic Antibody"]}, {"conceptId": "C120627", "definition": "A measurement of the anti-nucleosome antibody in a biological specimen.", "preferredTerm": "Anti-Nucleosome Antibody Measurement", "submissionValue": "Anti-Nucleosome Antibody", "synonyms": ["Anti-Nucleosome Antibody"]}, {"conceptId": "C124335", "definition": "A measurement of the antiphospholipid IgG antibody in a biological specimen.", "preferredTerm": "Anti-Phospholipid IgG Antibody Measurement", "submissionValue": "Anti-Phospholipid IgG Antibody", "synonyms": ["Anti-Phospholipid IgG Antibody"]}, {"conceptId": "C124336", "definition": "A measurement of the antiphospholipid IgM antibody in a biological specimen.", "preferredTerm": "Anti-Phospholipid IgM Antibody Measurement", "submissionValue": "Anti-Phospholipid IgM Antibody", "synonyms": ["Anti-Phospholipid IgM Antibody"]}, {"conceptId": "C81976", "definition": "A measurement of the anti-Saccharomyces cerevisiae antibody in a biological specimen.", "preferredTerm": "Anti-Saccharomyces cerevisiae Antibody Measurement", "submissionValue": "Anti-Saccharomyces cerevisiae Antibody", "synonyms": ["Anti-Saccharomyces cerevisiae Antibody"]}, {"conceptId": "C92269", "definition": "A measurement of the anti-single stranded DNA IgG antibody in a biological specimen.", "preferredTerm": "Anti-Single Stranded DNA IgG Measurement", "submissionValue": "Anti-Single Stranded DNA IgG", "synonyms": ["Anti-Single Stranded DNA IgG"]}, {"conceptId": "C74691", "definition": "A measurement of any antidepressant class drug present in a biological specimen.", "preferredTerm": "Antidepressant Measurement", "submissionValue": "Antidepressants", "synonyms": ["Antidepressants"]}, {"conceptId": "C74847", "definition": "A measurement of the antidiuretic hormone in a biological specimen.", "preferredTerm": "Antidiuretic Hormone Measurement", "submissionValue": "Antidiuretic Hormone", "synonyms": ["Antidiuretic Hormone", "Vasopressin"]}, {"conceptId": "C81974", "definition": "A measurement of the antibody or complement-coated erythrocytes in a biological specimen in vivo.", "preferredTerm": "Direct Antiglobulin Test", "submissionValue": "Antiglobulin Test, Direct", "synonyms": ["Antiglobulin Test, Direct", "Direct Coombs Test"]}, {"conceptId": "C91372", "definition": "A test that uses Coombs' reagent to detect the presence of anti-erythrocyte antibodies in a biological specimen.", "preferredTerm": "Indirect Antiglobulin Test", "submissionValue": "Antiglobulin Test, Indirect", "synonyms": ["Antiglobulin Test, Indirect", "Indirect Coombs Test"]}, {"conceptId": "C81975", "definition": "A measurement of the antimitochondrial antibodies in a biological specimen.", "preferredTerm": "Antimitochondrial Antibody Measurement", "submissionValue": "Antimitochondrial Antibodies", "synonyms": ["Antimitochondrial Antibodies", "Mitochondrial Antibody"]}, {"conceptId": "C74916", "definition": "A measurement of the total antinuclear antibodies (antibodies that attack the body's own tissue) in a biological specimen.", "preferredTerm": "Antinuclear Antibody Measurement", "submissionValue": "Antinuclear Antibodies", "synonyms": ["Antinuclear Antibodies"]}, {"conceptId": "C122093", "definition": "A measurement of the antinuclear IgG antibody in a biological specimen.", "preferredTerm": "Antinuclear IgG Antibody Measurement", "submissionValue": "Antinuclear IgG Antibody", "synonyms": ["Antinuclear IgG Antibody"]}, {"conceptId": "C102258", "definition": "A measurement of the total antiphospholipid antibodies in a biological specimen.", "preferredTerm": "Antiphospholipid Antibody Measurement", "submissionValue": "Antiphospholipid Antibodies", "synonyms": ["Antiphospholipid Antibodies"]}, {"conceptId": "C81958", "definition": "A measurement of the antithrombin activity in a biological specimen.", "preferredTerm": "Antithrombin Activity Measurement", "submissionValue": "Antithrombin", "synonyms": ["Antithrombin", "Antithrombin Activity", "Antithrombin III", "Antithrombin III Activity"]}, {"conceptId": "C147306", "definition": "A relative measurement (ratio or percentage) of the biological activity of antithrombin in a subject's specimen when compared to the same activity in a control specimen.", "preferredTerm": "Antithrombin Activity Actual to Control Ratio Measurement", "submissionValue": "Antithrombin Activity Actual/Control", "synonyms": ["Antithrombin Activity Actual/Antithrombin Activity Control", "Antithrombin Activity Actual/Control", "Antithrombin Activity Actual/Normal"]}, {"conceptId": "C81977", "definition": "A measurement of the antithrombin antigen in a biological specimen.", "preferredTerm": "Antithrombin Antigen Measurement", "submissionValue": "Antithrombin Antigen", "synonyms": ["Antithrombin Antigen", "Antithrombin III Antigen"]}, {"conceptId": "C124337", "definition": "A measurement of the total apolipoprotein A in a biological specimen.", "preferredTerm": "Apolipoprotein A Measurement", "submissionValue": "Apolipoprotein A", "synonyms": ["Apolipoprotein A"]}, {"conceptId": "C74733", "definition": "A measurement of the apolipoprotein A1 in a biological specimen.", "preferredTerm": "Apolipoprotein A1 Measurement", "submissionValue": "Apolipoprotein A1", "synonyms": ["Apolipoprotein A1"]}, {"conceptId": "C147292", "definition": "A relative measurement (ratio or percentage) of the Apolipoprotein A1 to Apolipoprotein B in a biological specimen.", "preferredTerm": "Apolipoprotein A1 to Apolipoprotein B Ratio Measurement", "submissionValue": "Apolipoprotein A1/Apolipoprotein B", "synonyms": ["Apolipoprotein A1/Apolipoprotein B"]}, {"conceptId": "C103354", "definition": "A measurement of the apolipoprotein A4 in a biological specimen.", "preferredTerm": "Apolipoprotein A4 Measurement", "submissionValue": "Apolipoprotein A4", "synonyms": ["Apolipoprotein A4"]}, {"conceptId": "C103355", "definition": "A measurement of the apolipoprotein A5 in a biological specimen.", "preferredTerm": "Apolipoprotein A5 Measurement", "submissionValue": "Apolipoprotein A5", "synonyms": ["Apolipoprotein A5"]}, {"conceptId": "C82000", "definition": "A measurement of the apolipoprotein AII in a biological specimen.", "preferredTerm": "Apolipoprotein AII Measurement", "submissionValue": "Apolipoprotein AII", "synonyms": ["Apolipoprotein AII"]}, {"conceptId": "C74734", "definition": "A measurement of the total apolipoprotein B in a biological specimen.", "preferredTerm": "Apolipoprotein B Measurement", "submissionValue": "Apolipoprotein B", "synonyms": ["Apolipoprotein B"]}, {"conceptId": "C103356", "definition": "A relative measurement (ratio or percentage) of the Apolipoprotein B to Apolipoprotein A1 in a biological specimen.", "preferredTerm": "Apolipoprotein B to Apolipoprotein A1 Ratio Measurement", "submissionValue": "Apolipoprotein B/Apolipoprotein A1", "synonyms": ["Apolipoprotein B/Apolipoprotein A1"]}, {"conceptId": "C120628", "definition": "A measurement of the apolipoprotein B100 in a biological specimen.", "preferredTerm": "Apolipoprotein B100 Measurement", "submissionValue": "Apolipoprotein B100", "synonyms": ["Apolipoprotein B100"]}, {"conceptId": "C120629", "definition": "A measurement of the apolipoprotein B48 in a biological specimen.", "preferredTerm": "Apolipoprotein B48 Measurement", "submissionValue": "Apolipoprotein B48", "synonyms": ["Apolipoprotein B48"]}, {"conceptId": "C100427", "definition": "A measurement of the apolipoprotein C2 in a biological specimen.", "preferredTerm": "Apolipoprotein C2 Measurement", "submissionValue": "Apolipoprotein C2", "synonyms": ["Apolipoprotein C2", "Apolipoprotein CII"]}, {"conceptId": "C120630", "definition": "A measurement of the apolipoprotein CI in a biological specimen.", "preferredTerm": "Apolipoprotein CI Measurement", "submissionValue": "Apolipoprotein CI", "synonyms": ["Apolipoprotein CI"]}, {"conceptId": "C82001", "definition": "A measurement of the apolipoprotein CIII in a biological specimen.", "preferredTerm": "Apolipoprotein CIII Measurement", "submissionValue": "Apolipoprotein CIII", "synonyms": ["Apolipoprotein CIII"]}, {"conceptId": "C82002", "definition": "A measurement of the apolipoprotein E in a biological specimen.", "preferredTerm": "Apolipoprotein E Measurement", "submissionValue": "Apolipoprotein E", "synonyms": ["Apolipoprotein E"]}, {"conceptId": "C92293", "definition": "A measurement of the apolipoprotein E4 in a biological specimen.", "preferredTerm": "Apolipoprotein E4 Measurement", "submissionValue": "Apolipoprotein E4", "synonyms": ["Apolipoprotein E4"]}, {"conceptId": "C82003", "definition": "A measurement of the apolipoprotein H in a biological specimen.", "preferredTerm": "Apolipoprotein H Measurement", "submissionValue": "Apolipoprotein H", "synonyms": ["Apolipoprotein H"]}, {"conceptId": "C100428", "definition": "A measurement of the apolipoprotein J in a biological specimen.", "preferredTerm": "Apolipoprotein J Measurement", "submissionValue": "Apolipoprotein J", "synonyms": ["Apolipoprotein J", "Clusterin"]}, {"conceptId": "C111130", "definition": "A relative measurement (ratio or percentage) of the apolipoprotein J to creatinine in a biological specimen.", "preferredTerm": "Apolipoprotein J to Creatinine Ratio Measurement", "submissionValue": "Apolipoprotein J/Creatinine", "synonyms": ["Apolipoprotein J/Creatinine", "Clusterin/Creatinine"]}, {"conceptId": "C102259", "definition": "A measurement of the arachidonic acid present in a biological specimen.", "preferredTerm": "Arachidonic Acid Measurement", "submissionValue": "Arachidonic Acid", "synonyms": ["Arachidonic Acid"]}, {"conceptId": "C147276", "definition": "A measurement of the Arachis hypogaea antigen IgE antibody in a biological specimen.", "preferredTerm": "Arachis hypogaea Antigen IgE Antibody Measurement", "submissionValue": "Arachis hypogaea Antigen IgE Antibody", "synonyms": ["Arachis hypogaea Antigen IgE Antibody", "Peanut Antigen IgE Antibody"]}, {"conceptId": "C122095", "definition": "A measurement of the arginine in a biological specimen.", "preferredTerm": "Arginine Measurement", "submissionValue": "Arginine", "synonyms": ["Arginine"]}, {"conceptId": "C147305", "definition": "A measurement of the arsenic in a biological specimen.", "preferredTerm": "Arsenic Measurement", "submissionValue": "Arsenic", "synonyms": ["Arsenic", "As"]}, {"conceptId": "C122096", "definition": "A measurement of the asparagine in a biological specimen.", "preferredTerm": "Asparagine Measurement", "submissionValue": "Asparagine", "synonyms": ["Asparagine"]}, {"conceptId": "C64467", "definition": "A measurement of the aspartate aminotransferase in a biological specimen.", "preferredTerm": "Aspartate Aminotransferase Measurement", "submissionValue": "Aspartate Aminotransferase", "synonyms": ["Aspartate Aminotransferase", "SGOT"]}, {"conceptId": "C81978", "definition": "A measurement of the aspartate aminotransferase antigen in a biological specimen.", "preferredTerm": "Aspartate Aminotransferase Antigen Measurement", "submissionValue": "Aspartate Aminotransferase Antigen", "synonyms": ["Aspartate Aminotransferase Antigen", "SGOT Antigen"]}, {"conceptId": "C117830", "definition": "A relative measurement (ratio or percentage) of the aspartate aminotransferase to creatinine in a biological specimen.", "preferredTerm": "Aspartate Aminotransferase to Creatinine Ratio Measurement", "submissionValue": "Aspartate Aminotransferase/Creatinine", "synonyms": ["Aspartate Aminotransferase/Creatinine"]}, {"conceptId": "C122097", "definition": "A measurement of the aspartic acid in a biological specimen.", "preferredTerm": "Aspartic Acid Measurement", "submissionValue": "Aspartic Acid", "synonyms": ["Aspartate", "Aspartic Acid"]}, {"conceptId": "C74886", "definition": "A measurement of the atrial natriuretic peptide in a biological specimen.", "preferredTerm": "Atrial Natriuretic Peptide Measurement", "submissionValue": "Atrial Natriuretic Peptide", "synonyms": ["Atrial Natriuretic Peptide", "Atriopeptin"]}, {"conceptId": "C74657", "definition": "A measurement of the Auer rods (elongated needle structures that are found in the cytoplasm of leukemic blasts and are formed by clumps of azurophilic granular material) in a biological specimen.", "preferredTerm": "Auer Rod Measurement", "submissionValue": "Auer Rods", "synonyms": ["Auer Rods"]}, {"conceptId": "C116185", "definition": "An observation of azurophilic granules in a biological specimen.", "preferredTerm": "Azurophilic Granule Measurement", "submissionValue": "Azurophilic Granules", "synonyms": ["Azurophilic Granulation", "Azurophilic Granules"]}, {"conceptId": "C111135", "definition": "A measurement of the B-cell activating factor in a biological specimen.", "preferredTerm": "B-Cell Activating Factor Measurement", "submissionValue": "B-Cell Activating Factor", "synonyms": ["B-Cell Activating Factor"]}, {"conceptId": "C128951", "definition": "A measurement to determine human leukocyte antigens (HLA) histocompatibility between the recipient and the donor by examining the presence or absence of the recipient's anti-HLA antibody reactivity towards HLA antigens expressed on the donor B-lymphocytes.", "preferredTerm": "B-lymphocyte Crossmatch Measurement", "submissionValue": "B-lymphocyte Crossmatch", "synonyms": ["B-lymphocyte Crossmatch"]}, {"conceptId": "C147310", "definition": "A measurement of the Borrelia burgdorferi IgG and IgM antibodies in a biological specimen.", "preferredTerm": "Borrelia burgdorferi IgG and IgM Antibody Measurement", "submissionValue": "B. burgdorferi IgG and IgM Antibody", "synonyms": ["B. burgdorferi IgG and IgM Antibody", "Borrelia burgdorferi IgG and IgM Antibody"]}, {"conceptId": "C64469", "definition": "A measurement of the bacteria in a biological specimen.", "preferredTerm": "Bacterial Count", "submissionValue": "Bacteria", "synonyms": ["Bacteria"]}, {"conceptId": "C74762", "definition": "A measurement of the bacterial casts present in a biological specimen.", "preferredTerm": "Bacterial Cast Measurement", "submissionValue": "Bacterial Casts", "synonyms": ["Bacterial Casts"]}, {"conceptId": "C120631", "definition": "A measurement of the bactericidal/permeability-increasing protein antibody in a biological specimen.", "preferredTerm": "Bactericidal/Permeability-Increasing Protein Antibody Measurement", "submissionValue": "Bactericidal/Permeability-Inc Protein Ab", "synonyms": ["BPI Auto-antibody", "Bactericidal/Permeability-Inc Protein Ab"]}, {"conceptId": "C74688", "definition": "A measurement of any barbiturate class drug present in a biological specimen.", "preferredTerm": "Barbiturate Drug Class Measurement", "submissionValue": "Barbiturates", "synonyms": ["Barbiturates"]}, {"conceptId": "C147309", "definition": "A measurement of the amount of alkali required to return a biological specimen to a normal pH under standard conditions.", "preferredTerm": "Base Deficit", "submissionValue": "Base Deficit", "synonyms": ["Base Deficit"]}, {"conceptId": "C119270", "definition": "A measurement of the amount of acid required to return a biological specimen to a normal pH under standard conditions.", "preferredTerm": "Base Excess Measurement", "submissionValue": "Base Excess", "synonyms": ["Base Excess"]}, {"conceptId": "C147311", "definition": "A measurement of the basophilic erythroblasts in a biological specimen taken from a non-human organism.", "preferredTerm": "Basophilic Erythroblast Count", "submissionValue": "Basophilic Erythroblast", "synonyms": ["Basophilic Erythroblast"]}, {"conceptId": "C135399", "definition": "A measurement of the basophilic metamyelocytes in a biological specimen.", "preferredTerm": "Basophilic Metamyelocyte Count", "submissionValue": "Basophilic Metamyelocytes", "synonyms": ["Basophilic Metamyelocytes"]}, {"conceptId": "C135400", "definition": "A measurement of the basophilic myelocytes in a biological specimen.", "preferredTerm": "Basophilic Myelocyte Count", "submissionValue": "Basophilic Myelocytes", "synonyms": ["Basophilic Myelocytes"]}, {"conceptId": "C147405", "definition": "A measurement of the basophilic normoblasts in a biological specimen taken from a non-human organism.", "preferredTerm": "Basophilic Normoblast Count", "submissionValue": "Basophilic Normoblast", "synonyms": ["Basophilic Normoblast"]}, {"conceptId": "C96567", "definition": "A measurement of the basophilic stippling in a biological specimen.", "preferredTerm": "Basophilic Stippling Measurement", "submissionValue": "Basophilic Stippling", "synonyms": ["Basophilic Stippling"]}, {"conceptId": "C64470", "definition": "A measurement of the basophils in a biological specimen.", "preferredTerm": "Total Basophil Count", "submissionValue": "Basophils", "synonyms": ["Basophils"]}, {"conceptId": "C130154", "definition": "A measurement of the banded basophils in a biological specimen.", "preferredTerm": "Basophil Band Form Count", "submissionValue": "Basophils Band Form", "synonyms": ["Basophils Band Form"]}, {"conceptId": "C130155", "definition": "A relative measurement (ratio or percentage) of the banded basophils to leukocytes in a biological specimen.", "preferredTerm": "Basophil Band Form to Leukocytes Ratio Measurement", "submissionValue": "Basophils Band Form/Leukocytes", "synonyms": ["Basophils Band Form/Leukocytes"]}, {"conceptId": "C135401", "definition": "A measurement of the segmented basophils in a biological specimen.", "preferredTerm": "Segmented Basophil Count", "submissionValue": "Basophils, Segmented", "synonyms": ["Basophils, Segmented"]}, {"conceptId": "C64471", "definition": "A relative measurement (ratio or percentage) of the basophils to leukocytes in a biological specimen.", "preferredTerm": "Basophil to Leukocyte Ratio", "submissionValue": "Basophils/Leukocytes", "synonyms": ["Basophils/Leukocytes"]}, {"conceptId": "C98865", "definition": "A relative measurement (ratio or percentage) of the basophils to total cells in a biological specimen (for example a bone marrow specimen).", "preferredTerm": "Basophil to Total Cell Ratio Measurement", "submissionValue": "Basophils/Total Cells", "synonyms": ["Basophils/Total Cells"]}, {"conceptId": "C130116", "definition": "A measurement of the bee mix antigen IgE antibody in a biological specimen.", "preferredTerm": "Bee Mix Antigen IgE Antibody Measurement", "submissionValue": "Bee Mix Antigen IgE Antibody", "synonyms": ["Bee Mix Antigen IgE Antibody"]}, {"conceptId": "C130117", "definition": "A measurement of the bee mix antigen IgG antibody in a biological specimen.", "preferredTerm": "Bee Mix Antigen IgG Antibody Measurement", "submissionValue": "Bee Mix Antigen IgG Antibody", "synonyms": ["Bee Mix Antigen IgG Antibody"]}, {"conceptId": "C130118", "definition": "A measurement of the bee mix antigen IgG4 antibody in a biological specimen.", "preferredTerm": "Bee Mix Antigen IgG4 Antibody Measurement", "submissionValue": "Bee Mix Antigen IgG4 Antibody", "synonyms": ["Bee Mix Antigen IgG4 Antibody"]}, {"conceptId": "C111136", "definition": "A measurement of the total Bence-Jones protein in a biological specimen.", "preferredTerm": "Bence-Jones Protein Measurement", "submissionValue": "Bence-Jones Protein", "synonyms": ["Bence-Jones Protein"]}, {"conceptId": "C74692", "definition": "A measurement of any benzodiazepine class drug present in a biological specimen.", "preferredTerm": "Benzodiazepine Measurement", "submissionValue": "Benzodiazepine", "synonyms": ["Benzodiazepine"]}, {"conceptId": "C75350", "definition": "A measurement of the benzoylecgonine in a biological specimen.", "preferredTerm": "Benzoylecgonine Measurement", "submissionValue": "Benzoylecgonine", "synonyms": ["Benzoylecgonine", "Cocaine Metabolite"]}, {"conceptId": "C130069", "definition": "A measurement of the Cynodon dactylon pollen antigen IgA antibody in a biological specimen.", "preferredTerm": "Bermuda Grass Pollen IgA Measurement", "submissionValue": "Bermuda Grass Pollen IgA", "synonyms": ["Bermuda Grass Pollen IgA"]}, {"conceptId": "C130068", "definition": "A measurement of the Cynodon dactylon pollen antigen IgE antibody in a biological specimen.", "preferredTerm": "Bermuda Grass Pollen IgE Measurement", "submissionValue": "Bermuda Grass Pollen IgE", "synonyms": ["Bermuda Grass Pollen IgE"]}, {"conceptId": "C130070", "definition": "A measurement of the Cynodon dactylon pollen antigen IgG antibody in a biological specimen.", "preferredTerm": "Bermuda Grass Pollen IgG Measurement", "submissionValue": "Bermuda Grass Pollen IgG", "synonyms": ["Bermuda Grass Pollen IgG"]}, {"conceptId": "C130071", "definition": "A measurement of the Cynodon dactylon pollen antigen IgG4 antibody in a biological specimen.", "preferredTerm": "Bermuda Grass Pollen IgG4 Measurement", "submissionValue": "Bermuda Grass Pollen IgG4", "synonyms": ["Bermuda Grass Pollen IgG4"]}, {"conceptId": "C100472", "definition": "A measurement of the beta carotene in a biological specimen.", "preferredTerm": "Beta Carotene Measurement", "submissionValue": "Beta Carotene", "synonyms": ["Beta Carotene", "Beta Carotin", "b-Carotene"]}, {"conceptId": "C103357", "definition": "A measurement of the beta catenin in a biological specimen.", "preferredTerm": "Beta Catenin Measurement", "submissionValue": "Beta Catenin", "synonyms": ["Beta Catenin"]}, {"conceptId": "C92256", "definition": "A measurement of the proteins contributing to the beta fraction in a biological specimen.", "preferredTerm": "Beta Globulin Measurement", "submissionValue": "Beta Globulin", "synonyms": ["Beta Globulin"]}, {"conceptId": "C92294", "definition": "A relative measurement (ratio or percentage) of beta fraction proteins to total proteins in a biological specimen.", "preferredTerm": "Beta Globulin to Total Protein Ratio Measurement", "submissionValue": "Beta Globulin/Total Protein", "synonyms": ["Beta Globulin/Total Protein"]}, {"conceptId": "C119274", "definition": "A measurement of the beta-1 globulin in a biological specimen.", "preferredTerm": "Beta-1 Globulin Measurement", "submissionValue": "Beta-1 Globulin", "synonyms": ["Beta-1 Globulin"]}, {"conceptId": "C142277", "definition": "A relative measurement (ratio or percentage) of the beta-1-fraction proteins to the total beta protein fraction in a biological specimen.", "preferredTerm": "Beta-1 Globulin to Total Beta Protein Ratio Measurement", "submissionValue": "Beta-1 Globulin/Beta Protein", "synonyms": ["Beta-1 Globulin/Beta Protein"]}, {"conceptId": "C119275", "definition": "A relative measurement (ratio or percentage) of beta-1-fraction proteins to total proteins in a biological specimen.", "preferredTerm": "Beta-1 Globulin to Total Protein Ratio Measurement", "submissionValue": "Beta-1 Globulin/Total Protein", "synonyms": ["Beta-1 Globulin/Total Protein"]}, {"conceptId": "C127607", "definition": "A measurement of the beta-1B glycoprotein in a biological specimen.", "preferredTerm": "Beta-1B Glycoprotein Measurement", "submissionValue": "Beta-1B Glycoprotein", "synonyms": ["Beta-1B Glycoprotein", "HPX", "Hemopexin"]}, {"conceptId": "C119276", "definition": "A measurement of the beta-2 globulin in a biological specimen.", "preferredTerm": "Beta-2 Globulin Measurement", "submissionValue": "Beta-2 Globulin", "synonyms": ["Beta-2 Globulin"]}, {"conceptId": "C119277", "definition": "A relative measurement (ratio or percentage) of beta-2-fraction proteins to total proteins in a biological specimen.", "preferredTerm": "Beta-2 Globulin to Total Protein Ratio Measurement", "submissionValue": "Beta-2 Globulin/Total Protein", "synonyms": ["Beta-2 Globulin/Total Protein"]}, {"conceptId": "C147308", "definition": "A measurement of the beta-2 glycoprotein 1 IgG antibodies in a biological specimen.", "preferredTerm": "Beta-2 Glycoprotein 1 IgA Antibody Measurement", "submissionValue": "Beta-2 Glycoprotein 1 IgA Antibody", "synonyms": ["Beta-2 Glycoprotein 1 IgA Antibody"]}, {"conceptId": "C103358", "definition": "A measurement of the Beta-2 glycoprotein 1 IgG antibodies in a biological specimen.", "preferredTerm": "Beta-2 Glycoprotein 1 IgG Antibody Measurement", "submissionValue": "Beta-2 Glycoprotein 1 IgG Antibody", "synonyms": ["Beta-2 Glycoprotein 1 IgG Antibody"]}, {"conceptId": "C103359", "definition": "A measurement of the Beta-2 glycoprotein 1 IgM antibodies in a biological specimen.", "preferredTerm": "Beta-2 Glycoprotein 1 IgM Antibody Measurement", "submissionValue": "Beta-2 Glycoprotein 1 IgM Antibody", "synonyms": ["Beta-2 Glycoprotein 1 IgM Antibody"]}, {"conceptId": "C81979", "definition": "A measurement of the beta-2 glycoprotein antibody in a biological specimen.", "preferredTerm": "Beta-2 Glycoprotein Antibody Measurement", "submissionValue": "Beta-2 Glycoprotein Antibody", "synonyms": ["Beta-2 Glycoprotein Antibody"]}, {"conceptId": "C81980", "definition": "A measurement of the beta-2 microglobulin in a biological specimen.", "preferredTerm": "Beta-2 Microglobulin Measurement", "submissionValue": "Beta-2 Microglobulin", "synonyms": ["Beta-2 Microglobulin"]}, {"conceptId": "C127608", "definition": "A relative measurement (ratio) of the beta-2 microglobulin to creatinine in a biological specimen.", "preferredTerm": "Beta-2 Microglobulin to Creatinine Ratio Measurement", "submissionValue": "Beta-2 Microglobulin/Creatinine", "synonyms": ["Beta-2 Microglobulin/Creatinine"]}, {"conceptId": "C96568", "definition": "A measurement of the total Beta-hydroxybutyrate in a biological specimen.", "preferredTerm": "Beta-Hydroxybutyrate Measurement", "submissionValue": "Beta-Hydroxybutyrate", "synonyms": ["3-Hydroxybutyrate", "B-Hydroxybutyrate", "Beta-Hydroxybutyrate"]}, {"conceptId": "C100426", "definition": "A measurement of the beta-trace protein in a biological specimen.", "preferredTerm": "Beta-Trace Protein Measurement", "submissionValue": "Beta-Trace Protein", "synonyms": ["Beta-Trace Protein"]}, {"conceptId": "C123455", "definition": "A measurement of the beta cell function (insulin production and secretion) in a biological specimen.", "preferredTerm": "Beta-Cell Function Measurement", "submissionValue": "Beta-cell Function", "synonyms": ["Beta-cell Function"]}, {"conceptId": "C122102", "definition": "A measurement of the beta-defensin 2 in a biological specimen.", "preferredTerm": "Beta-defensin 2 Measurement", "submissionValue": "Beta-defensin 2", "synonyms": ["Beta-defensin 2"]}, {"conceptId": "C74667", "definition": "A measurement of the bicarbonate in a biological specimen.", "preferredTerm": "Bicarbonate Measurement", "submissionValue": "Bicarbonate", "synonyms": ["Bicarbonate", "HCO3"]}, {"conceptId": "C74800", "definition": "A measurement of the total bile acids in a biological specimen.", "preferredTerm": "Bile Acid Measurement", "submissionValue": "Bile Acid", "synonyms": ["Bile Acid", "Bile Acids", "Bile Salt", "Bile Salts"]}, {"conceptId": "C38037", "definition": "A measurement of the total bilirubin in a biological specimen.", "preferredTerm": "Total Bilirubin Measurement", "submissionValue": "Bilirubin", "synonyms": ["Bilirubin", "Total Bilirubin"]}, {"conceptId": "C74668", "definition": "A measurement of the bilirubin crystals present in a biological specimen.", "preferredTerm": "Bilirubin Crystal Measurement", "submissionValue": "Bilirubin Crystals", "synonyms": ["Bilirubin Crystals"]}, {"conceptId": "C117860", "definition": "A measurement of bioavailable testosterone in a biological specimen.", "preferredTerm": "Bioavailable Testosterone Measurement", "submissionValue": "Bioavailable Testosterone", "synonyms": ["Bioavailable Testosterone"]}, {"conceptId": "C130073", "definition": "A measurement of the Betula pollen antigen IgA antibody in a biological specimen.", "preferredTerm": "Birch Pollen IgA Measurement", "submissionValue": "Birch Pollen IgA", "synonyms": ["Birch Pollen IgA"]}, {"conceptId": "C130072", "definition": "A measurement of the Betula pollen antigen IgE antibody in a biological specimen.", "preferredTerm": "Birch Pollen IgE Measurement", "submissionValue": "Birch Pollen IgE", "synonyms": ["Birch Pollen IgE"]}, {"conceptId": "C130074", "definition": "A measurement of the Betula pollen antigen IgG antibody in a biological specimen.", "preferredTerm": "Birch Pollen IgG Measurement", "submissionValue": "Birch Pollen IgG", "synonyms": ["Birch Pollen IgG"]}, {"conceptId": "C130075", "definition": "A measurement of the Betula pollen antigen IgG4 antibody in a biological specimen.", "preferredTerm": "Birch Pollen IgG4 Measurement", "submissionValue": "Birch Pollen IgG4", "synonyms": ["Birch Pollen IgG4"]}, {"conceptId": "C74700", "definition": "A measurement of the bite cells (erythrocytes with the appearance of a bite having been removed, due to oxidative hemolysis) in a biological specimen.", "preferredTerm": "Bite Cell Count", "submissionValue": "Bite Cells", "synonyms": ["Bite Cells"]}, {"conceptId": "C74634", "definition": "A relative measurement (ratio or percentage) of bite cells (erythrocytes with the appearance of a bite having been removed, due to oxidative hemolysis) to all erythrocytes in a biological specimen.", "preferredTerm": "Bite Cell to Erythrocyte Ratio Measurement", "submissionValue": "Bite Cells/Erythrocytes", "synonyms": ["Bite Cells/Erythrocytes"]}, {"conceptId": "C74605", "definition": "A measurement of the blast cells in a biological specimen.", "preferredTerm": "Blast Count", "submissionValue": "Blasts", "synonyms": ["Blasts"]}, {"conceptId": "C64487", "definition": "A relative measurement (ratio or percentage) of the blasts to leukocytes in a biological specimen.", "preferredTerm": "Blast to Leukocyte Ratio", "submissionValue": "Blasts/Leukocytes", "synonyms": ["Blasts/Leukocytes"]}, {"conceptId": "C147312", "definition": "A relative measurement (ratio or percentage) of the blasts to the total nucleated cells in a biological specimen.", "preferredTerm": "Blasts to Nucleated Cells Ratio Measurement", "submissionValue": "Blasts/Nucleated Cells", "synonyms": ["Blasts/Nucleated Cells"]}, {"conceptId": "C89775", "definition": "A measurement of the time from the start to cessation of an induced bleed.", "preferredTerm": "Bleeding Time", "submissionValue": "Bleeding Time", "synonyms": ["Bleeding Time", "Clotting Time Homeostasis"]}, {"conceptId": "C127609", "definition": "A measurement of the blister cells in a biological specimen.", "preferredTerm": "Blister Cell Count", "submissionValue": "Blister Cell", "synonyms": ["Blister Cell"]}, {"conceptId": "C92287", "definition": "A measurement of the bone specific alkaline phosphatase isoform in a biological specimen.", "preferredTerm": "Bone Specific Alkaline Phosphatase Measurement", "submissionValue": "Bone Specific Alkaline Phosphatase", "synonyms": ["Bone Specific Alkaline Phosphatase"]}, {"conceptId": "C122098", "definition": "A measurement of the total Borrelia burgdorferi antibody in a biological specimen.", "preferredTerm": "Borrelia Burgdorferi Antibody Measurement", "submissionValue": "Borrelia burgdorferi Antibody", "synonyms": ["Borrelia burgdorferi Antibody", "Lyme Antibody"]}, {"conceptId": "C122099", "definition": "A measurement of the Borrelia burgdorferi IgA antibody in a biological specimen.", "preferredTerm": "Borrelia Burgdorferi IgA Antibody Measurement", "submissionValue": "Borrelia burgdorferi IgA Antibody", "synonyms": ["Borrelia burgdorferi IgA Antibody", "Lyme IgA Antibody"]}, {"conceptId": "C122100", "definition": "A measurement of the Borrelia burgdorferi IgG antibody in a biological specimen.", "preferredTerm": "Borrelia Burgdorferi IgG Antibody Measurement", "submissionValue": "Borrelia burgdorferi IgG Antibody", "synonyms": ["Borrelia burgdorferi IgG Antibody", "Lyme IgG Antibody"]}, {"conceptId": "C122101", "definition": "A measurement of the Borrelia burgdorferi IgM antibody in a biological specimen.", "preferredTerm": "Borrelia Burgdorferi IgM Antibody Measurement", "submissionValue": "Borrelia burgdorferi IgM Antibody", "synonyms": ["Borrelia burgdorferi IgM Antibody", "Lyme IgM Antibody"]}, {"conceptId": "C147284", "definition": "A measurement of the Acer negundo pollen antigen IgE antibody in a biological specimen.", "preferredTerm": "Boxelder Pollen IgE Antibody Measurement", "submissionValue": "Boxelder Pollen IgE Antibody", "synonyms": ["Boxelder Pollen IgE Antibody"]}, {"conceptId": "C74735", "definition": "A measurement of the brain (B-type) natriuretic peptide in a biological specimen.", "preferredTerm": "Brain Natriuretic Peptide Measurement", "submissionValue": "Brain Natriuretic Peptide", "synonyms": ["B-Type Natriuretic Peptide", "Brain Natriuretic Peptide"]}, {"conceptId": "C82004", "definition": "A measurement of the brain-derived neurotrophic factor in a biological specimen.", "preferredTerm": "Brain-Derived Neurotrophic Factor Measurement", "submissionValue": "Brain-Derived Neurotrophic Factor", "synonyms": ["Brain-Derived Neurotrophic Factor"]}, {"conceptId": "C96588", "definition": "A measurement of the broad casts in a biological specimen.", "preferredTerm": "Broad Casts Measurement", "submissionValue": "Broad Casts", "synonyms": ["Broad Casts"]}, {"conceptId": "C75352", "definition": "A measurement of the buprenorphine drug present in a biological specimen.", "preferredTerm": "Buprenorphine Measurement", "submissionValue": "Buprenorphine", "synonyms": ["Buprenorphine"]}, {"conceptId": "C74701", "definition": "A measurement of the Burr cells (erythrocytes characterized by the presence of small, blunt projections evenly distributed across the cell surface) in a biological specimen.", "preferredTerm": "Burr Cell Count", "submissionValue": "Burr Cells", "synonyms": ["Burr Cells"]}, {"conceptId": "C75365", "definition": "A measurement of the butalbital present in a biological specimen.", "preferredTerm": "Butalbital Measurement", "submissionValue": "Butalbital", "synonyms": ["Butalbital"]}, {"conceptId": "C111142", "definition": "A measurement of the total butyrylcholinesterase in a biological specimen.", "preferredTerm": "Butyrylcholinesterase Measurement", "submissionValue": "Butyrylcholinesterase", "synonyms": ["Acylcholine Acylhydrolase", "Butyrylcholinesterase", "Non-neuronal Cholinesterase", "Plasma Cholinesterase", "Pseudocholinesterase"]}, {"conceptId": "C64548", "definition": "A measurement of the C reactive protein in a biological specimen.", "preferredTerm": "C-Reactive Protein Measurement", "submissionValue": "C Reactive Protein", "synonyms": ["C Reactive Protein"]}, {"conceptId": "C122103", "definition": "A measurement of the CCR5, chemokine (C-C motif) receptor type 5, in a biological specimen.", "preferredTerm": "C-C Chemokine Receptor Type 5 Measurement", "submissionValue": "C-C Chemokine Receptor Type 5", "synonyms": ["C-C Chemokine Receptor Type 5", "CD195"]}, {"conceptId": "C74736", "definition": "A measurement of the C (connecting) peptide of insulin in a biological specimen.", "preferredTerm": "C-peptide Measurement", "submissionValue": "C-peptide", "synonyms": ["C-peptide"]}, {"conceptId": "C103364", "definition": "A count of the CD1 expressing cells per unit of a biological specimen.", "preferredTerm": "CD1 Expressing Cell Measurement", "submissionValue": "CD1", "synonyms": ["CD1"]}, {"conceptId": "C111146", "definition": "A measurement of the CD10 expressing cells per unit in a biological specimen.", "preferredTerm": "CD10 Expressing Cell Count", "submissionValue": "CD10", "synonyms": ["CD10"]}, {"conceptId": "C105439", "definition": "A count of the CD11a expressing cells per unit of a biological specimen.", "preferredTerm": "CD11A Expressing Cell Count", "submissionValue": "CD11A", "synonyms": ["CD11A", "CD11a"]}, {"conceptId": "C105440", "definition": "A count of the CD11b expressing cells per unit of a biological specimen.", "preferredTerm": "CD11B Expressing Cell Count", "submissionValue": "CD11B", "synonyms": ["CD11B", "CD11b", "Complement Component 3 Receptor 3 Subunit", "Complement Receptor Type 3 Alpha Subunit", "ITGAM Protein", "Integrin Alpha-M"]}, {"conceptId": "C111147", "definition": "A measurement of the CD13 expressing cells per unit in a biological specimen.", "preferredTerm": "CD13 Expressing Cell Count", "submissionValue": "CD13", "synonyms": ["CD13"]}, {"conceptId": "C103365", "definition": "A count of the CD14 expressing cells per unit of a biological specimen.", "preferredTerm": "CD14 Expressing Cell Measurement", "submissionValue": "CD14", "synonyms": ["CD14"]}, {"conceptId": "C122105", "definition": "A relative measurement (ratio or percentage) of CD161 expressing cells to all lymphocytes in a biological specimen.", "preferredTerm": "CD161 to Lymphocyte Ratio Measurement", "submissionValue": "CD161/Lymphocytes", "synonyms": ["CD161/Lymphocytes"]}, {"conceptId": "C122104", "definition": "A relative measurement (ratio or percentage) of CD161a expressing cells to all lymphocytes in a biological specimen.", "preferredTerm": "CD161a to Lymphocyte Ratio Measurement", "submissionValue": "CD161a/Lymphocytes", "synonyms": ["CD161a/Lymphocytes"]}, {"conceptId": "C103808", "definition": "A count of the CD19 expressing cells per unit in a biological specimen.", "preferredTerm": "CD19 Expressing Cell Count", "submissionValue": "CD19", "synonyms": ["CD19"]}, {"conceptId": "C103812", "definition": "A relative measurement (ratio or percentage) of CD19 expressing cells to all lymphocytes in a biological specimen.", "preferredTerm": "CD19 Cell to Lymphocyte Ratio Measurement", "submissionValue": "CD19/Lymphocytes", "synonyms": ["CD19/Lymphocytes"]}, {"conceptId": "C103366", "definition": "A count of the CD2 expressing cells per unit of a biological specimen.", "preferredTerm": "CD2 Expressing Cell Measurement", "submissionValue": "CD2", "synonyms": ["CD2"]}, {"conceptId": "C103367", "definition": "A relative measurement (ratio or percentage) of CD2 expressing cells to all lymphocytes in a biological specimen.", "preferredTerm": "CD2 Expressing Cell to Lymphocyte Ratio Measurement", "submissionValue": "CD2/Lymphocytes", "synonyms": ["CD2/Lymphocytes"]}, {"conceptId": "C103368", "definition": "A count of the CD20 expressing cells per unit of a biological specimen.", "preferredTerm": "CD20 Expressing Cell Measurement", "submissionValue": "CD20", "synonyms": ["CD20"]}, {"conceptId": "C111148", "definition": "A measurement of the CD22 expressing cells per unit in a biological specimen.", "preferredTerm": "CD22 Expressing Cell Count", "submissionValue": "CD22", "synonyms": ["CD22"]}, {"conceptId": "C111149", "definition": "A measurement of the CD23 expressing cells per unit in a biological specimen.", "preferredTerm": "CD23 Expressing Cell Count", "submissionValue": "CD23", "synonyms": ["CD23"]}, {"conceptId": "C103809", "definition": "A count of the CD3 expressing cells per unit in a biological specimen.", "preferredTerm": "CD3 Expressing Cell Count", "submissionValue": "CD3", "synonyms": ["CD3"]}, {"conceptId": "C103813", "definition": "A relative measurement (ratio or percentage) of CD3 expressing cells to all lymphocytes in a biological specimen.", "preferredTerm": "CD3 Cell to Lymphocyte Ratio Measurement", "submissionValue": "CD3/Lymphocytes", "synonyms": ["CD3/Lymphocytes"]}, {"conceptId": "C111150", "definition": "A measurement of the CD33 expressing cells per unit in a biological specimen.", "preferredTerm": "CD33 Expressing Cell Count", "submissionValue": "CD33", "synonyms": ["CD33"]}, {"conceptId": "C102260", "definition": "A measurement of the CD34 expressing cells per unit in a biological specimen.", "preferredTerm": "CD34 Measurement", "submissionValue": "CD34", "synonyms": ["CD34"]}, {"conceptId": "C111151", "definition": "A measurement of the CD38 expressing cells per unit in a biological specimen.", "preferredTerm": "CD38 Expressing Cell Count", "submissionValue": "CD38", "synonyms": ["CD38"]}, {"conceptId": "C103810", "definition": "A count of the CD4 expressing cells per unit in a biological specimen.", "preferredTerm": "CD4 Expressing Cell Count", "submissionValue": "CD4", "synonyms": ["CD4"]}, {"conceptId": "C103814", "definition": "A relative measurement (ratio or percentage) of CD4 expressing cells to the CD8 expressing cells in a biological specimen.", "preferredTerm": "CD4 Cell to CD8 Cell Ratio Measurement", "submissionValue": "CD4/CD8", "synonyms": ["CD4/CD8"]}, {"conceptId": "C103815", "definition": "A relative measurement (ratio or percentage) of CD4 expressing cells to all lymphocytes in a biological specimen.", "preferredTerm": "CD4 Cell to Lymphocyte Ratio Measurement", "submissionValue": "CD4/Lymphocytes", "synonyms": ["CD4/Lymphocytes"]}, {"conceptId": "C82006", "definition": "A count of the CD40 cells per unit in a biological specimen.", "preferredTerm": "CD40 Measurement", "submissionValue": "CD40", "synonyms": ["CD40"]}, {"conceptId": "C82007", "definition": "A count of the CD40 ligand cells per unit in a biological specimen.", "preferredTerm": "CD40 Ligand Measurement", "submissionValue": "CD40 Ligand", "synonyms": ["CD40 Ligand"]}, {"conceptId": "C122106", "definition": "A relative measurement (ratio or percentage) of CD45 expressing cells to all lymphocytes in a biological specimen.", "preferredTerm": "CD45 to Lymphocyte Ratio Measurement", "submissionValue": "CD45/Lymphocytes", "synonyms": ["CD45/Lymphocytes"]}, {"conceptId": "C122107", "definition": "A relative measurement (ratio or percentage) of CD45RA expressing cells to all lymphocytes in a biological specimen.", "preferredTerm": "CD45RA to Lymphocyte Ratio Measurement", "submissionValue": "CD45RA/Lymphocytes", "synonyms": ["CD45RA/Lymphocytes"]}, {"conceptId": "C103369", "definition": "A count of the CD5 expressing cells per unit of a biological specimen.", "preferredTerm": "CD5 Expressing Cell Measurement", "submissionValue": "CD5", "synonyms": ["CD5"]}, {"conceptId": "C103370", "definition": "A count of the CD56 expressing cells per unit of a biological specimen.", "preferredTerm": "CD56 Expressing Cell Measurement", "submissionValue": "CD56", "synonyms": ["CD56"]}, {"conceptId": "C111152", "definition": "A measurement of the CD79A expressing cells per unit in a biological specimen.", "preferredTerm": "CD79A Expressing Cell Count", "submissionValue": "CD79A", "synonyms": ["CD79A"]}, {"conceptId": "C103811", "definition": "A count of the CD8 expressing cells per unit in a biological specimen.", "preferredTerm": "CD8 Expressing Cell Count", "submissionValue": "CD8", "synonyms": ["CD8"]}, {"conceptId": "C103816", "definition": "A relative measurement (ratio or percentage) of CD8 expressing cells to all lymphocytes in a biological specimen.", "preferredTerm": "CD8 Cell to Lymphocyte Ratio Measurement", "submissionValue": "CD8/Lymphocytes", "synonyms": ["CD8/Lymphocytes"]}, {"conceptId": "C147319", "definition": "A relative measurement (ratio or percentage) of the macromolecular type 1 creatine kinase to total creatine kinase in a biological specimen.", "preferredTerm": "Macromolecular Type 1 Creatine Kinase to Total Creatine Kinase Ratio Measurement", "submissionValue": "CK, Macromolecular Type 1/Total CK", "synonyms": ["CK, Macromolecular Type 1/Total CK", "Creatine Kinase, Macromolecular Type 1/Total Creatine Kinase"]}, {"conceptId": "C147320", "definition": "A relative measurement (ratio or percentage) of the macromolecular type 2 creatine kinase to total creatine kinase in a biological specimen.", "preferredTerm": "Macromolecular Type 2 Creatine Kinase to Total Creatine Kinase Ratio Measurement", "submissionValue": "CK, Macromolecular Type 2/Total CK", "synonyms": ["CK, Macromolecular Type 2/Total CK", "Creatine Kinase, Macromolecular Type 2/Total Creatine Kinase"]}, {"conceptId": "C74702", "definition": "A measurement of the Cabot rings (red-purple staining, threadlike, ring or figure 8 shaped filaments in an erythrocyte) in a biological specimen.", "preferredTerm": "Cabot Ring Count", "submissionValue": "Cabot Rings", "synonyms": ["Cabot Rings"]}, {"conceptId": "C75346", "definition": "A measurement of the caffeine in a biological specimen.", "preferredTerm": "Caffeine Measurement", "submissionValue": "Caffeine", "synonyms": ["Caffeine"]}, {"conceptId": "C125942", "definition": "A measurement of the total calbindin in a biological specimen.", "preferredTerm": "Calbindin Measurement", "submissionValue": "Calbindin", "synonyms": ["Calbindin"]}, {"conceptId": "C74848", "definition": "A measurement of the calcitonin hormone in a biological specimen.", "preferredTerm": "Calcitonin Measurement", "submissionValue": "Calcitonin", "synonyms": ["Calcitonin"]}, {"conceptId": "C74849", "definition": "A measurement of the calcitriol hormone in a biological specimen.", "preferredTerm": "Calcitriol Measurement", "submissionValue": "Calcitriol", "synonyms": ["Calcitriol"]}, {"conceptId": "C64488", "definition": "A measurement of the calcium in a biological specimen.", "preferredTerm": "Calcium Measurement", "submissionValue": "Calcium", "synonyms": ["Calcium"]}, {"conceptId": "C103360", "definition": "A measurement of the product of the calcium and phosphate measurements in a biological specimen.", "preferredTerm": "Calcium and Phosphorus Product Measurement", "submissionValue": "Calcium - Phosphorus Product", "synonyms": ["Calcium - Phosphorus Product"]}, {"conceptId": "C74669", "definition": "A measurement of the calcium carbonate crystals present in a biological specimen.", "preferredTerm": "Calcium Carbonate Crystal Measurement", "submissionValue": "Calcium Carbonate Crystals", "synonyms": ["Calcium Carbonate Crystals"]}, {"conceptId": "C96589", "definition": "A measurement of the volume of serum or plasma that would be cleared of calcium by excretion of urine for a specified unit of time (e.g. one minute).", "preferredTerm": "Calcium Clearance Measurement", "submissionValue": "Calcium Clearance", "synonyms": ["Calcium Clearance"]}, {"conceptId": "C119272", "definition": "A measurement of calcium, which has been corrected for albumin, in a biological specimen.", "preferredTerm": "Calcium Corrected Measurement", "submissionValue": "Calcium Corrected", "synonyms": ["Calcium Corrected"]}, {"conceptId": "C147314", "definition": "A measurement of calcium, which has been corrected for total protein, in a biological specimen.", "preferredTerm": "Calcium Corrected for Total Protein Measurement", "submissionValue": "Calcium Corrected for Total Protein", "synonyms": ["Calcium Corrected for Total Protein"]}, {"conceptId": "C117831", "definition": "A measurement of the amount of calcium being excreted in urine over a defined period of time (e.g. one hour).", "preferredTerm": "Calcium Urine Excretion Rate", "submissionValue": "Calcium Excretion Rate", "synonyms": ["Calcium Excretion Rate"]}, {"conceptId": "C74670", "definition": "A measurement of the calcium oxalate crystals present in a biological specimen.", "preferredTerm": "Calcium Oxalate Crystal Measurement", "submissionValue": "Calcium Oxalate Crystals", "synonyms": ["Calcium Oxalate Crystals"]}, {"conceptId": "C74671", "definition": "A measurement of the calcium phosphate crystals present in a biological specimen.", "preferredTerm": "Calcium Phosphate Crystal Measurement", "submissionValue": "Calcium Phosphate Crystals", "synonyms": ["Calcium Phosphate Crystals"]}, {"conceptId": "C124340", "definition": "A measurement of the calcium sulfate crystals present in a biological specimen.", "preferredTerm": "Calcium Sulfate Crystals Measurement", "submissionValue": "Calcium Sulfate Crystals", "synonyms": ["Calcium Sulfate Crystals"]}, {"conceptId": "C96590", "definition": "A measurement of the calcium sulphate in a biological specimen.", "preferredTerm": "Calcium Sulphate Measurement", "submissionValue": "Calcium Sulphate", "synonyms": ["Calcium Sulphate"]}, {"conceptId": "C81948", "definition": "A measurement of the ionized calcium in a biological specimen.", "preferredTerm": "Ionized Calcium Measurement", "submissionValue": "Calcium, Ionized", "synonyms": ["Calcium, Ionized"]}, {"conceptId": "C125941", "definition": "A measurement of the pH adjusted ionized calcium in a biological specimen.", "preferredTerm": "Ionized pH Adjusted Calcium Measurement", "submissionValue": "Calcium, Ionized pH Adjusted", "synonyms": ["Calcium, Ionized pH Adjusted"]}, {"conceptId": "C79439", "definition": "A relative measurement (ratio or percentage) of the calcium to creatinine in a biological specimen.", "preferredTerm": "Calcium to Creatinine Ratio Measurement", "submissionValue": "Calcium/Creatinine", "synonyms": ["Calcium/Creatinine"]}, {"conceptId": "C139087", "definition": "A relative measurement (ratio) of the calcium to phosphorus in a biological specimen.", "preferredTerm": "Calcium to Phosphorus Ratio Measurement", "submissionValue": "Calcium/Phosphorus", "synonyms": ["Calcium/Phosphate", "Calcium/Phosphorus"]}, {"conceptId": "C132381", "definition": "A measurement of the calculated panel reactive antibody, which is based on the number/type of unacceptable HLA antigens to which an organ recipient has been sensitized, and which algorithmically estimates the level of sensitization in the recipient. The CPRA is computed from HLA antigen frequencies in a given donor population using both anti-HLA class I and class II antibody specificities; it also represents the percentage of actual organ donors that express one or more unacceptable HLA antigens to which a recipient may react adversely.", "preferredTerm": "Calculated Panel Reactive Antibody Measurement", "submissionValue": "Calculated Panel Reactive Antibody", "synonyms": ["Calculated Panel Reactive Antibody"]}, {"conceptId": "C82005", "definition": "A measurement of the calprotectin in a biological specimen.", "preferredTerm": "Calprotectin Measurement", "submissionValue": "Calprotectin", "synonyms": ["Calprotectin"]}, {"conceptId": "C103361", "definition": "A measurement of the cancer antigen 1 in a biological specimen.", "preferredTerm": "Cancer Antigen 1 Measurement", "submissionValue": "Cancer Antigen 1", "synonyms": ["Cancer Antigen 1"]}, {"conceptId": "C79089", "definition": "A measurement of the cancer antigen 125 in a biological specimen.", "preferredTerm": "CA-125 Measurement", "submissionValue": "Cancer Antigen 125", "synonyms": ["Cancer Antigen 125"]}, {"conceptId": "C103362", "definition": "A measurement of the cancer antigen 15-3 in a biological specimen.", "preferredTerm": "Cancer Antigen 15-3 Measurement", "submissionValue": "Cancer Antigen 15-3", "synonyms": ["Cancer Antigen 15-3"]}, {"conceptId": "C81982", "definition": "A measurement of the cancer antigen 19-9 in a biological specimen.", "preferredTerm": "Cancer Antigen 19-9 Measurement", "submissionValue": "Cancer Antigen 19-9", "synonyms": ["Cancer Antigen 19-9"]}, {"conceptId": "C111143", "definition": "A measurement of the cancer antigen 27-29 in a biological specimen.", "preferredTerm": "Cancer Antigen 27-29 Measurement", "submissionValue": "Cancer Antigen 27-29", "synonyms": ["Cancer Antigen 27-29"]}, {"conceptId": "C106505", "definition": "A measurement of the cancer antigen 72-4 in a biological specimen.", "preferredTerm": "Cancer Antigen 72-4 Measurement", "submissionValue": "Cancer Antigen 72-4", "synonyms": ["CA 72-4", "Cancer Antigen 72-4", "Carbohydrate Antigen 72-4"]}, {"conceptId": "C74689", "definition": "A measurement of any cannabinoid class drug present in a biological specimen.", "preferredTerm": "Cannabinoid Drug Class Measurement", "submissionValue": "Cannabinoids", "synonyms": ["Cannabinoids"]}, {"conceptId": "C135402", "definition": "A measurement of any synthetic cannabinoid class drug present in a biological specimen.", "preferredTerm": "Synthetic Cannabinoid Measurement", "submissionValue": "Cannabinoids, Synthetic", "synonyms": ["Cannabinoids, Synthetic"]}, {"conceptId": "C125943", "definition": "A relative measurement (ratio or percentage) of the carbohydrate-deficient transferrin to total transferrin in a biological specimen.", "preferredTerm": "Carbohydrate-Deficient Transferrin to Transferrin Ratio Measurement", "submissionValue": "Carb-Deficient Transferrin/Transferrin", "synonyms": ["Carb-Deficient Transferrin/Transferrin"]}, {"conceptId": "C147322", "definition": "A measurement of the carbamazepine in a biological specimen.", "preferredTerm": "Carbamazepine Measurement", "submissionValue": "Carbamazepine", "synonyms": ["Carbamazepine"]}, {"conceptId": "C101016", "definition": "A measurement of transferrin with a reduced number of carbohydrate moieties in a biological specimen.", "preferredTerm": "Carbohydrate-Deficient Transferrin Measurement", "submissionValue": "Carbohydrate-Deficient Transferrin", "synonyms": ["Carbohydrate-Deficient Transferrin"]}, {"conceptId": "C64545", "definition": "A measurement of the carbon dioxide gas in a biological specimen.", "preferredTerm": "Carbon Dioxide Measurement", "submissionValue": "Carbon Dioxide", "synonyms": ["Carbon Dioxide"]}, {"conceptId": "C139084", "definition": "A measurement of the carbon monoxide in a biological specimen.", "preferredTerm": "Carbon Monoxide Measurement", "submissionValue": "Carbon Monoxide", "synonyms": ["Carbon Monoxide"]}, {"conceptId": "C96591", "definition": "A measurement of the carboxyhemoglobin, carbon monoxide-bound hemoglobin, in a biological specimen.", "preferredTerm": "Carboxyhemoglobin Measurement", "submissionValue": "Carboxyhemoglobin", "synonyms": ["Carboxyhemoglobin"]}, {"conceptId": "C147355", "definition": "A relative measurement (ratio or percentage) of the amount of carboxyhemoglobin compared to total hemoglobin in a biological specimen.", "preferredTerm": "Carboxyhemoglobin to Total Hemoglobin Ratio Measurement", "submissionValue": "Carboxyhemoglobin/Total Hemoglobin", "synonyms": ["Carboxyhemoglobin/Total Hemoglobin"]}, {"conceptId": "C81983", "definition": "A measurement of the carcinoembryonic antigen in a biological specimen.", "preferredTerm": "Carcinoembryonic Antigen Measurement", "submissionValue": "Carcinoembryonic Antigen", "synonyms": ["Carcinoembryonic Antigen"]}, {"conceptId": "C122112", "definition": "A measurement of the cardiolipin IgA antibody in a biological specimen.", "preferredTerm": "Cardiolipin IgA Antibody Measurement", "submissionValue": "Cardiolipin IgA Antibody", "synonyms": ["Cardiolipin IgA Antibody"]}, {"conceptId": "C111144", "definition": "A measurement of the cardiolipin IgG antibody in a biological specimen.", "preferredTerm": "Cardiolipin IgG Antibody Measurement", "submissionValue": "Cardiolipin IgG Antibody", "synonyms": ["Anti-Cardiolipin IgG Antibody", "Cardiolipin IgG Antibody"]}, {"conceptId": "C103363", "definition": "A measurement of the cardiolipin IgM antibodies in a biological specimen.", "preferredTerm": "Cardiolipin IgM Antibody Measurement", "submissionValue": "Cardiolipin IgM Antibody", "synonyms": ["Cardiolipin IgM Antibody"]}, {"conceptId": "C74682", "definition": "A measurement of the total carnitine in a biological specimen.", "preferredTerm": "Total Carnitine Measurement", "submissionValue": "Carnitine", "synonyms": ["Carnitine"]}, {"conceptId": "C92288", "definition": "A measurement of the carnitine acetyl transferase in a biological specimen.", "preferredTerm": "Carnitine Acetyl Transferase Measurement", "submissionValue": "Carnitine Acetyl Transferase", "synonyms": ["Carnitine Acetyl Transferase"]}, {"conceptId": "C147323", "definition": "A measurement of the total carnitine esters in a biological specimen.", "preferredTerm": "Carnitine Ester Measurement", "submissionValue": "Carnitine Esters", "synonyms": ["Carnitine Esters"]}, {"conceptId": "C74677", "definition": "A measurement of the free carnitine in a biological specimen.", "preferredTerm": "Free Carnitine Measurement", "submissionValue": "Carnitine, Free", "synonyms": ["Carnitine, Free"]}, {"conceptId": "C111145", "definition": "A measurement of the cartilage oligomeric matrix protein in a biological specimen.", "preferredTerm": "Cartilage Oligomeric Matrix Protein Measurement", "submissionValue": "Cartilage Oligomeric Matrix Protein", "synonyms": ["Cartilage Oligomeric Matrix Protein"]}, {"conceptId": "C74763", "definition": "A statement that indicates casts were looked for in a biological specimen.", "preferredTerm": "Cast Present Or Absent", "submissionValue": "Casts", "synonyms": ["Casts"]}, {"conceptId": "C130126", "definition": "A measurement of the Felis catus dander antigen IgA antibody in a biological specimen.", "preferredTerm": "Cat Dander Antigen IgA Antibody Measurement", "submissionValue": "Cat Dander Antigen IgA Antibody", "synonyms": ["Cat Dander Antigen IgA Antibody"]}, {"conceptId": "C130124", "definition": "A measurement of the Felis catus dander antigen IgE antibody in a biological specimen.", "preferredTerm": "Cat Dander Antigen IgE Antibody Measurement", "submissionValue": "Cat Dander Antigen IgE Antibody", "synonyms": ["Cat Dander Antigen IgE Antibody"]}, {"conceptId": "C130125", "definition": "A measurement of the Felis catus dander antigen IgG antibody in a biological specimen.", "preferredTerm": "Cat Dander Antigen IgG Antibody Measurement", "submissionValue": "Cat Dander Antigen IgG Antibody", "synonyms": ["Cat Dander Antigen IgG Antibody"]}, {"conceptId": "C130127", "definition": "A measurement of the Felis catus dander antigen IgG4 antibody in a biological specimen.", "preferredTerm": "Cat Dander Antigen IgG4 Antibody Measurement", "submissionValue": "Cat Dander Antigen IgG4 Antibody", "synonyms": ["Cat Dander Antigen IgG4 Antibody"]}, {"conceptId": "C120634", "definition": "A measurement of the total cathepsin antibody in a biological specimen.", "preferredTerm": "Cathepsin Antibody Measurement", "submissionValue": "Cathepsin Antibody", "synonyms": ["Cathepsin Antibody"]}, {"conceptId": "C48938", "definition": "A measurement of the total cells in a biological specimen.", "preferredTerm": "Cell Count", "submissionValue": "Cells", "synonyms": ["Cells"]}, {"conceptId": "C74764", "definition": "A measurement of the cellular (white blood cell, red blood cell, epithelial and bacterial) casts present in a biological specimen.", "preferredTerm": "Cellular Cast Measurement", "submissionValue": "Cellular Casts", "synonyms": ["Cellular Casts"]}, {"conceptId": "C111153", "definition": "A measurement of the degree, quality or condition of cells in a biological specimen.", "preferredTerm": "Cellularity Measurement", "submissionValue": "Cellularity", "synonyms": ["Cellularity", "Cellularity Grade"]}, {"conceptId": "C111154", "definition": "A measurement of centromere B antibodies in a biological specimen.", "preferredTerm": "Centromere B Antibody Measurement", "submissionValue": "Centromere B Antibodies", "synonyms": ["Centromere B Antibodies"]}, {"conceptId": "C122111", "definition": "A measurement of the centromere IgG antibody in a biological specimen.", "preferredTerm": "Centromere IgG Antibody Measurement", "submissionValue": "Centromere IgG Antibody", "synonyms": ["Centromere IgG Antibody", "Centromere Protein B"]}, {"conceptId": "C100432", "definition": "A measurement of ceruloplasmin in a biological specimen.", "preferredTerm": "Ceruloplasmin Measurement", "submissionValue": "Ceruloplasmin", "synonyms": ["Caeruloplasmin", "Ceruloplasmin"]}, {"conceptId": "C130156", "definition": "A measurement of the CCL12, chemokine (C-C motif) ligand 12, in a biological specimen.", "preferredTerm": "Chemokine (C-C Motif) Ligand 12 Measurement", "submissionValue": "Chemokine (C-C Motif) Ligand 12", "synonyms": ["Chemokine (C-C Motif) Ligand 12", "Monocyte Chemotactic Protein 5"]}, {"conceptId": "C112236", "definition": "A measurement of the CCL17, chemokine (C-C motif) ligand 17, in a biological specimen.", "preferredTerm": "Chemokine (C-C Motif) Ligand 17 Measurement", "submissionValue": "Chemokine (C-C Motif) Ligand 17", "synonyms": ["ABCD-2", "Chemokine (C-C Motif) Ligand 17", "SCYA17", "TARC", "Thymus and Activation Regulated Chemokine"]}, {"conceptId": "C112237", "definition": "A measurement of the CCL18, chemokine (C-C motif) ligand 18, in a biological specimen.", "preferredTerm": "Chemokine (C-C Motif) Ligand 18 Measurement", "submissionValue": "Chemokine (C-C Motif) Ligand 18", "synonyms": ["AMAC-1", "AMAC1", "CKB7", "Chemokine (C-C Motif) Ligand 18", "DC-CK1", "DCCK1", "MIP4", "Macrophage inflammatory protein-4", "PARC", "Pulmonary and Activation-Regulated Chemokine", "SCYA18"]}, {"conceptId": "C130157", "definition": "A measurement of the CCL19, chemokine (C-C motif) ligand 19, in a biological specimen.", "preferredTerm": "Chemokine (C-C Motif) Ligand 19 Measurement", "submissionValue": "Chemokine (C-C Motif) Ligand 19", "synonyms": ["Chemokine (C-C Motif) Ligand 19", "MIP3B", "Macrophage Inflammatory Protein 3 Beta"]}, {"conceptId": "C147315", "definition": "A measurement of the CCL21, chemokine (C-C motif) ligand 21, in a biological specimen.", "preferredTerm": "Chemokine (C-C Motif) Ligand 21 Measurement", "submissionValue": "Chemokine (C-C Motif) Ligand 21", "synonyms": ["6Ckine", "Chemokine (C-C Motif) Ligand 21", "Secondary Lymphoid Tissue Chemokine"]}, {"conceptId": "C130158", "definition": "A measurement of the CCL7, chemokine (C-C motif) ligand 7, in a biological specimen.", "preferredTerm": "Chemokine (C-C Motif) Ligand 7 Measurement", "submissionValue": "Chemokine (C-C Motif) Ligand 7", "synonyms": ["Chemokine (C-C Motif) Ligand 7", "MCP3", "Monocyte Chemotactic Protein 3"]}, {"conceptId": "C128952", "definition": "A measurement of the CXCL1, chemokine (C-X-C motif) ligand 1, in a biological specimen.", "preferredTerm": "Chemokine (C-X-C Motif) Ligand 1 Measurement", "submissionValue": "Chemokine (C-X-C Motif) Ligand 1", "synonyms": ["Chemokine (C-X-C Motif) Ligand 1", "GRO Alpha", "GRO/KC", "Melanoma Growth Stimulating Activity, Alpha"]}, {"conceptId": "C112238", "definition": "A measurement of the CXCL10, chemokine (C-X-C motif) ligand 10, in a biological specimen.", "preferredTerm": "Chemokine (C-X-C Motif) Ligand 10 Measurement", "submissionValue": "Chemokine (C-X-C Motif) Ligand 10", "synonyms": ["Chemokine (C-X-C Motif) Ligand 10", "IP-10", "Interferon Gamma-induced Protein 10", "Small-inducible Cytokine B10"]}, {"conceptId": "C147328", "definition": "A measurement of the CXCL13, chemokine (C-X-C motif) ligand 13, in a biological specimen.", "preferredTerm": "Chemokine (C-X-C Motif) Ligand 13 Measurement", "submissionValue": "Chemokine (C-X-C Motif) Ligand 13", "synonyms": ["B Lymphocyte Chemoattractant", "Chemokine (C-X-C Motif) Ligand 13"]}, {"conceptId": "C147329", "definition": "A measurement of the CXCL3, chemokine (C-X-C motif) ligand 3, in a biological specimen.", "preferredTerm": "Chemokine (C-X-C Motif) Ligand 3 Measurement", "submissionValue": "Chemokine (C-X-C Motif) Ligand 3", "synonyms": ["Chemokine (C-X-C Motif) Ligand 3", "GRO Gamma", "MIP2 Beta", "MIP2B", "Macrophage Inflammatory Protein 2-Beta"]}, {"conceptId": "C147330", "definition": "A measurement of the CXCL4, chemokine (C-X-C motif) ligand 4, in a biological specimen.", "preferredTerm": "Chemokine (C-X-C Motif) Ligand 4 Measurement", "submissionValue": "Chemokine (C-X-C Motif) Ligand 4", "synonyms": ["Chemokine (C-X-C Motif) Ligand 4", "Oncostatin A", "PLF4", "Platelet Factor 4"]}, {"conceptId": "C130159", "definition": "A measurement of the CXCL6, chemokine (C-X-C motif) ligand 6, in a biological specimen.", "preferredTerm": "Chemokine (C-X-C Motif) Ligand 6 Measurement", "submissionValue": "Chemokine (C-X-C Motif) Ligand 6", "synonyms": ["Chemokine (C-X-C Motif) Ligand 6", "GCP2", "Granulocyte Chemotactic Protein 2"]}, {"conceptId": "C100431", "definition": "A measurement of the CXCR3, chemokine (C-X-C motif) receptor 3, in a biological specimen.", "preferredTerm": "Chemokine Receptor CXCR3 Measurement", "submissionValue": "Chemokine (C-X-C Motif) Receptor 3", "synonyms": ["CD183", "CXCR3", "Chemokine (C-X-C Motif) Receptor 3", "GPR9"]}, {"conceptId": "C135404", "definition": "A measurement of the Chikungunya virus antibody in a biological specimen.", "preferredTerm": "Chikungunya Virus Antibody Measurement", "submissionValue": "Chikungunya Virus Antibody", "synonyms": ["Chikungunya Virus Antibody"]}, {"conceptId": "C92432", "definition": "A measurement of the Chlamydia pneumoniae IgA antibody in a biological specimen.", "preferredTerm": "Chlamydia pneumoniae IgA Antibody Measurement", "submissionValue": "Chlamydia pneumoniae IgA Antibody", "synonyms": ["Chlamydia pneumoniae IgA Antibody"]}, {"conceptId": "C92433", "definition": "A measurement of the Chlamydia pneumoniae IgM in a biological specimen.", "preferredTerm": "Chlamydia pneumoniae IgM Antibody Measurement", "submissionValue": "Chlamydia pneumoniae IgM Antibody", "synonyms": ["Chlamydia pneumoniae IgM Antibody"]}, {"conceptId": "C100464", "definition": "A measurement of the Chlamydia trachomatis IgA antibody in a biological specimen.", "preferredTerm": "Chlamydia trachomatis IgA Antibody Measurement", "submissionValue": "Chlamydia trachomatis IgA Antibody", "synonyms": ["Chlamydia trachomatis IgA Antibody"]}, {"conceptId": "C100466", "definition": "A measurement of the Chlamydia trachomatis IgG antibody in a biological specimen.", "preferredTerm": "Chlamydia trachomatis IgG Antibody Measurement", "submissionValue": "Chlamydia trachomatis IgG Antibody", "synonyms": ["Chlamydia trachomatis IgG Antibody"]}, {"conceptId": "C100465", "definition": "A measurement of the Chlamydia trachomatis IgM antibody in a biological specimen.", "preferredTerm": "Chlamydia trachomatis IgM Antibody Measurement", "submissionValue": "Chlamydia trachomatis IgM Antibody", "synonyms": ["Chlamydia trachomatis IgM Antibody"]}, {"conceptId": "C75371", "definition": "A measurement of the chlordiazepoxide present in a biological specimen.", "preferredTerm": "Chlordiazepoxide Measurement", "submissionValue": "Chlordiazepoxide", "synonyms": ["Chlordiazepoxide"]}, {"conceptId": "C64495", "definition": "A measurement of the chloride in a biological specimen.", "preferredTerm": "Chloride Measurement", "submissionValue": "Chloride", "synonyms": ["Chloride"]}, {"conceptId": "C106509", "definition": "A measurement of the volume of serum or plasma that would be cleared of chloride by excretion of urine for a specified unit of time (e.g. one minute).", "preferredTerm": "Chloride Clearance Measurement", "submissionValue": "Chloride Clearance", "synonyms": ["Chloride Clearance"]}, {"conceptId": "C117832", "definition": "A measurement of the amount of chloride being excreted in urine over a defined period of time (e.g. one hour).", "preferredTerm": "Chloride Urine Excretion Rate", "submissionValue": "Chloride Excretion Rate", "synonyms": ["Chloride Excretion Rate"]}, {"conceptId": "C79440", "definition": "A relative measurement (ratio or percentage) of the chloride to creatinine in a biological specimen.", "preferredTerm": "Chloride to Creatinine Ratio Measurement", "submissionValue": "Chloride/Creatinine", "synonyms": ["Chloride/Creatinine"]}, {"conceptId": "C74850", "definition": "A measurement of the cholecystokinin hormone in a biological specimen.", "preferredTerm": "Cholecystokinin Measurement", "submissionValue": "Cholecystokinin", "synonyms": ["Cholecystokinin", "Pancreozymin"]}, {"conceptId": "C116194", "definition": "A measurement of the cholera toxin B subunit IgG antibody in a biological specimen.", "preferredTerm": "Cholera Toxin B Subunit IgG Antibody Measurement", "submissionValue": "Cholera Toxin B Subunit IgG Antibody", "synonyms": ["Cholera Toxin B Subunit IgG Antibody"]}, {"conceptId": "C105586", "definition": "A measurement of the cholesterol in a biological specimen.", "preferredTerm": "Cholesterol Measurement", "submissionValue": "Cholesterol", "synonyms": ["Cholesterol", "Total Cholesterol"]}, {"conceptId": "C74672", "definition": "A measurement of the cholesterol crystals present in a biological specimen.", "preferredTerm": "Cholesterol Crystal Measurement", "submissionValue": "Cholesterol Crystals", "synonyms": ["Cholesterol Crystals"]}, {"conceptId": "C80171", "definition": "A relative measurement (ratio or percentage) of total cholesterol to high-density lipoprotein cholesterol (HDL-C) in a biological specimen.", "preferredTerm": "Cholesterol to HDL-Cholesterol Ratio Measurement", "submissionValue": "Cholesterol/HDL-Cholesterol", "synonyms": ["Cholesterol/HDL-Cholesterol"]}, {"conceptId": "C120632", "definition": "A measurement of the cholesteryl ester transfer protein in a biological specimen.", "preferredTerm": "Cholesteryl Ester Transfer Protein Measurement", "submissionValue": "Cholesteryl Ester Transfer Protein", "synonyms": ["Cholesteryl Ester Transfer Protein"]}, {"conceptId": "C103380", "definition": "A measurement of the biological activity of cholesteryl ester transfer protein in a biological specimen.", "preferredTerm": "Cholesteryl Ester Transfer Protein Activity Measurement", "submissionValue": "Cholesteryl Ester Transfer Protein Act", "synonyms": ["Cholesteryl Ester Transfer Protein Act"]}, {"conceptId": "C92289", "definition": "A measurement of the cholinesterase in a biological specimen.", "preferredTerm": "Cholinesterase Measurement", "submissionValue": "Cholinesterase", "synonyms": ["Cholinesterase"]}, {"conceptId": "C147128", "definition": "A measurement of the total choriogonadotropin in a biological specimen.", "preferredTerm": "Choriogonadotropin Measurement", "submissionValue": "Choriogonadotropin", "synonyms": ["Choriogonadotropin"]}, {"conceptId": "C64851", "definition": "A measurement of the Choriogonadotropin Beta in a biological specimen.", "preferredTerm": "Choriogonadotropin Beta Measurement", "submissionValue": "Choriogonadotropin Beta", "synonyms": ["Choriogonadotropin Beta", "Pregnancy Test"]}, {"conceptId": "C147360", "definition": "A measurement of the free choriogonadotropin beta in a biological specimen.", "preferredTerm": "Free Choriogonadotropin Beta Measurement", "submissionValue": "Choriogonadotropin Beta, Free", "synonyms": ["Choriogonadotropin Beta, Free"]}, {"conceptId": "C147361", "definition": "A measurement of the intact choriogonadotropin in a biological specimen.", "preferredTerm": "Intact Choriogonadotropin Measurement", "submissionValue": "Choriogonadotropin, Intact", "synonyms": ["Choriogonadotropin, Intact"]}, {"conceptId": "C147318", "definition": "A measurement of the chromatin antibodies in a biological specimen.", "preferredTerm": "Chromatin Antibody Measurement", "submissionValue": "Chromatin Antibodies", "synonyms": ["Chromatin Antibodies"]}, {"conceptId": "C122108", "definition": "A measurement of the chromogranin A in a biological specimen.", "preferredTerm": "Chromogranin A Measurement", "submissionValue": "Chromogranin A", "synonyms": ["Chromogranin A"]}, {"conceptId": "C120633", "definition": "A measurement of the chylomicrons in a biological specimen.", "preferredTerm": "Chylomicrons Measurement", "submissionValue": "Chylomicrons", "synonyms": ["Chylomicrons"]}, {"conceptId": "C111159", "definition": "A measurement of the total chymotrypsin in a biological specimen.", "preferredTerm": "Chymotrypsin Measurement", "submissionValue": "Chymotrypsin", "synonyms": ["Chymotrypsin"]}, {"conceptId": "C96592", "definition": "A measurement of the circulating endothelial cells in a biological specimen.", "preferredTerm": "Circulating Endothelial Cell Count", "submissionValue": "Circulating Endothelial Cells", "synonyms": ["Circulating Endothelial Cells"]}, {"conceptId": "C127611", "definition": "A measurement of the circulating immune complexes in a biological specimen.", "preferredTerm": "Circulating Immune Complex Measurement", "submissionValue": "Circulating Immune Complexes", "synonyms": ["Circulating Immune Complexes"]}, {"conceptId": "C96593", "definition": "A measurement of the circulating tumor cells in a biological specimen.", "preferredTerm": "Circulating Tumor Cell Count", "submissionValue": "Circulating Tumor Cells", "synonyms": ["Circulating Tumor Cells"]}, {"conceptId": "C147327", "definition": "A measurement of the citalopram present in a biological specimen.", "preferredTerm": "Citalopram Measurement", "submissionValue": "Citalopram", "synonyms": ["Citalopram"]}, {"conceptId": "C92248", "definition": "A measurement of the citrate in a biological specimen.", "preferredTerm": "Citrate Measurement", "submissionValue": "Citrate", "synonyms": ["Citrate", "Citric Acid"]}, {"conceptId": "C122110", "definition": "A relative measurement (ratio or percentage) of the citrate to creatinine in a biological specimen.", "preferredTerm": "Citrate to Creatinine Ratio Measurement", "submissionValue": "Citrate/Creatinine", "synonyms": ["Citrate/Creatinine", "Citric Acid/Creatinine"]}, {"conceptId": "C122109", "definition": "A measurement of the citrulline in a biological specimen.", "preferredTerm": "Citrulline Measurement", "submissionValue": "Citrulline", "synonyms": ["Citrulline"]}, {"conceptId": "C147286", "definition": "A measurement of the Cladosporium herbarum antigen IgE antibody in a biological specimen.", "preferredTerm": "Cladosporium herbarum IgE Antibody Measurement", "submissionValue": "Cladosporium herbarum IgE Antibody", "synonyms": ["Cladosporium herbarum IgE Antibody"]}, {"conceptId": "C96594", "definition": "A measurement of the transparency of a biological specimen.", "preferredTerm": "Clarity Measurement", "submissionValue": "Clarity", "synonyms": ["Clarity"]}, {"conceptId": "C139082", "definition": "A measurement of the clonazepam present in a biological specimen.", "preferredTerm": "Clonazepam Measurement", "submissionValue": "Clonazepam", "synonyms": ["Clonazepam"]}, {"conceptId": "C139077", "definition": "A measurement of the clorazepate present in a biological specimen.", "preferredTerm": "Clorazepate Measurement", "submissionValue": "Clorazepate", "synonyms": ["Clorazepate"]}, {"conceptId": "C103381", "definition": "A measurement of the Clostridium difficile toxin in a biological specimen.", "preferredTerm": "Clostridium difficile Toxin Measurement", "submissionValue": "Clostridium difficile Toxin", "synonyms": ["Clostridium difficile Toxin"]}, {"conceptId": "C103382", "definition": "A measurement of the Clostridium tetani IgG antibody in a biological specimen.", "preferredTerm": "Clostridium tetani IgG Antibody Measurement", "submissionValue": "Clostridium tetani IgG Antibody", "synonyms": ["Clostridium tetani IgG Antibody"]}, {"conceptId": "C135406", "definition": "A measurement of the Clostridium tetani toxoid IgG antibody in a biological specimen.", "preferredTerm": "Clostridium tetani Toxoid IgG Antibody Measurement", "submissionValue": "Clostridium tetani Toxoid IgG Antibody", "synonyms": ["Clostridium tetani Toxoid IgG Antibody"]}, {"conceptId": "C102261", "definition": "A measurement of the clue cells in a biological specimen.", "preferredTerm": "Clue Cell Count", "submissionValue": "Clue Cells", "synonyms": ["Clue Cells"]}, {"conceptId": "C112239", "definition": "A measurement of the efficiency of coagulation of a biological specimen. This is calculated by a mathematical formula that takes into account the R value, K value, angle and maximum amplitude of clot formation.", "preferredTerm": "Coagulation Index Measurement", "submissionValue": "Coagulation Index", "synonyms": ["CI", "Coagulation Index"]}, {"conceptId": "C74690", "definition": "A measurement of the cocaine present in a biological specimen.", "preferredTerm": "Cocaine Measurement", "submissionValue": "Cocaine", "synonyms": ["Cocaine"]}, {"conceptId": "C142273", "definition": "A measurement of the cocaine and amphetamine-regulated transcript protein in a biological specimen.", "preferredTerm": "Cocaine Amphetamine-Regulated Transcript Protein Measurement", "submissionValue": "Cocaine Amphetamine-Reg Transcript Prot", "synonyms": ["CART", "Cocaine Amphetamine-Reg Transcript Prot", "Cocaine and Amphetamine-Regulated Transcript Protein"]}, {"conceptId": "C142274", "definition": "A measurement of the cocaine, benzoylecgonine, and/or ecgonine in a biological specimen.", "preferredTerm": "Cocaine, Benzoylecgonine, and/or Ecgonine Measurement", "submissionValue": "Cocaine Benzoylecgonine Ecgonine", "synonyms": ["Cocaine Benzoylecgonine Ecgonine"]}, {"conceptId": "C111160", "definition": "A measurement of the coccidioides antibody in a biological specimen.", "preferredTerm": "Coccidioides Antibody Measurement", "submissionValue": "Coccidioides Antibody", "synonyms": ["Coccidioides Antibody"]}, {"conceptId": "C74877", "definition": "A measurement of the codeine present in a biological specimen.", "preferredTerm": "Codeine Measurement", "submissionValue": "Codeine", "synonyms": ["Codeine"]}, {"conceptId": "C103383", "definition": "A measurement of the collagen type IV in a biological specimen.", "preferredTerm": "Collagen Type IV Measurement", "submissionValue": "Collagen Type IV", "synonyms": ["Collagen Type IV"]}, {"conceptId": "C64546", "definition": "A measurement of the color of a biological specimen.", "preferredTerm": "Color Assessment", "submissionValue": "Color", "synonyms": ["Color"]}, {"conceptId": "C135405", "definition": "A relative measurement (ratio or percentage) of the columnar epithelial cells to non-squamous epithelial cells in a biological specimen.", "preferredTerm": "Columnar Epithelial Cells to Non-Squamous Epithelial Cells Ratio Measurement", "submissionValue": "Columnar Epi Cells/Non-Squam Epi Cells", "synonyms": ["Columnar Epi Cells/Non-Squam Epi Cells"]}, {"conceptId": "C147285", "definition": "A measurement of the Ambrosia elatior pollen antigen IgE antibody in a biological specimen.", "preferredTerm": "Common Ragweed Pollen IgE Antibody Measurement", "submissionValue": "Common Ragweed Pollen IgE Antibody", "synonyms": ["Common Ragweed Pollen IgE Antibody"]}, {"conceptId": "C135403", "definition": "A measurement of the Ba fragment of complement factor B in a biological specimen.", "preferredTerm": "Complement Ba Measurement", "submissionValue": "Complement Ba", "synonyms": ["Ba Fragment of Complement Factor B", "Ba Fragment of Factor B", "Complement Ba"]}, {"conceptId": "C80172", "definition": "A measurement of the Bb fragment of complement factor B in a biological specimen.", "preferredTerm": "Complement Bb Measurement", "submissionValue": "Complement Bb", "synonyms": ["Bb Fragment of Complement Factor B", "Bb Fragment of Factor B", "Complement Bb"]}, {"conceptId": "C147313", "definition": "A measurement of the complement C1 esterase inhibitor in a biological specimen.", "preferredTerm": "Complement C1 Esterase Inhibitor Measurement", "submissionValue": "Complement C1 Esterase Inhibitor", "synonyms": ["Complement C1 Esterase Inhibitor"]}, {"conceptId": "C80173", "definition": "A measurement of the complement C1q antibody in a biological specimen.", "preferredTerm": "Complement C1q Antibody Measurement", "submissionValue": "Complement C1q Antibody", "synonyms": ["Complement C1q Antibody"]}, {"conceptId": "C80174", "definition": "A measurement of the complement C3 in a biological specimen.", "preferredTerm": "Complement C3 Measurement", "submissionValue": "Complement C3", "synonyms": ["Complement C3"]}, {"conceptId": "C80175", "definition": "A measurement of the complement C3a in a biological specimen.", "preferredTerm": "Complement C3a Measurement", "submissionValue": "Complement C3a", "synonyms": ["ASP, Complement C3 DesArg, Acetylation-stimulating Protein", "Complement C3a"]}, {"conceptId": "C80176", "definition": "A measurement of the complement C3b in a biological specimen.", "preferredTerm": "Complement C3b Measurement", "submissionValue": "Complement C3b", "synonyms": ["Complement C3b"]}, {"conceptId": "C119271", "definition": "A measurement of the complement C3d antibody in a biological specimen.", "preferredTerm": "Complement C3d Antibody Measurement", "submissionValue": "Complement C3d Antibody", "synonyms": ["Complement C3d Antibody"]}, {"conceptId": "C80177", "definition": "A measurement of the complement C4 in a biological specimen.", "preferredTerm": "Complement C4 Measurement", "submissionValue": "Complement C4", "synonyms": ["Complement C4"]}, {"conceptId": "C80178", "definition": "A measurement of the complement C4a in a biological specimen.", "preferredTerm": "Complement C4a Measurement", "submissionValue": "Complement C4a", "synonyms": ["Complement C4a"]}, {"conceptId": "C127610", "definition": "A measurement of the complement C4d in a biological specimen.", "preferredTerm": "Complement C4d Measurement", "submissionValue": "Complement C4d", "synonyms": ["Complement C4d"]}, {"conceptId": "C80179", "definition": "A measurement of the complement C5a in a biological specimen.", "preferredTerm": "Complement C5a Measurement", "submissionValue": "Complement C5a", "synonyms": ["Complement C5a"]}, {"conceptId": "C147317", "definition": "A measurement of the complement required to lyse 100 percent of red blood cells in a biological specimen.", "preferredTerm": "Complement CH100 Measurement", "submissionValue": "Complement CH100", "synonyms": ["CH100", "Complement CH100"]}, {"conceptId": "C100423", "definition": "A measurement of the complement required to lyse 50 percent of red blood cells in a biological specimen.", "preferredTerm": "CH50 Measurement", "submissionValue": "Complement CH50", "synonyms": ["CH50", "Complement CH50"]}, {"conceptId": "C80160", "definition": "A measurement of the total complement in a biological specimen.", "preferredTerm": "Complement Measurement", "submissionValue": "Complement Total", "synonyms": ["Complement Total"]}, {"conceptId": "C127612", "definition": "A measurement of the copeptin in a biological specimen.", "preferredTerm": "Copeptin Measurement", "submissionValue": "Copeptin", "synonyms": ["Copeptin"]}, {"conceptId": "C111161", "definition": "A measurement of copper in a biological specimen.", "preferredTerm": "Copper Measurement", "submissionValue": "Copper", "synonyms": ["Copper", "Cu"]}, {"conceptId": "C139068", "definition": "A measurement of the standard deviation of hemoglobin concentrations in erythrocytes in a biological specimen, calculated as the standard deviation of hemoglobin content divided by the mean hemoglobin content.", "preferredTerm": "Corpuscular Hemoglobin Concentration Distribution Width", "submissionValue": "Corpuscular HGB Conc Distribution Width", "synonyms": ["Corpuscular HGB Conc Distribution Width", "Corpuscular Hemoglobin Concentration Distribution Width"]}, {"conceptId": "C139067", "definition": "A direct measurement of the concentration of hemoglobin within individual erythrocytes in a biological specimen, reported as a mean.", "preferredTerm": "Corpuscular Hemoglobin Concentration Mean", "submissionValue": "Corpuscular HGB Concentration Mean", "synonyms": ["Corpuscular HGB Concentration Mean"]}, {"conceptId": "C139066", "definition": "A measurement of the mean erythrocyte hemoglobin content within an individual erythrocyte, calculated as the product of cell volume and cell hemoglobin concentration.", "preferredTerm": "Corpuscular Hemoglobin Content", "submissionValue": "Corpuscular Hemoglobin Content", "synonyms": ["CH", "Cellular Hemoglobin Content", "Corpuscular Hemoglobin Content"]}, {"conceptId": "C79434", "definition": "A measurement of corticosterone in a biological specimen.", "preferredTerm": "Corticosterone Measurement", "submissionValue": "Corticosterone", "synonyms": ["Corticosterone"]}, {"conceptId": "C106511", "definition": "A relative measurement (ratio or percentage) of the corticosterone to creatinine present in a sample.", "preferredTerm": "Corticosterone to Creatinine Ratio Measurement", "submissionValue": "Corticosterone/Creatinine", "synonyms": ["Corticosterone/Creatinine"]}, {"conceptId": "C74851", "definition": "A measurement of the corticotropin releasing hormone in a biological specimen.", "preferredTerm": "Corticotropin Releasing Hormone Measurement", "submissionValue": "Corticotropin Releasing Hormone", "synonyms": ["Corticotropin Releasing Factor", "Corticotropin Releasing Hormone"]}, {"conceptId": "C74781", "definition": "A measurement of the cortisol in a biological specimen.", "preferredTerm": "Cortisol Measurement", "submissionValue": "Cortisol", "synonyms": ["Cortisol", "Total Cortisol"]}, {"conceptId": "C88113", "definition": "A measurement of the free, unbound cortisol in a biological specimen.", "preferredTerm": "Free Cortisol Measurement", "submissionValue": "Cortisol, Free", "synonyms": ["Cortisol, Free"]}, {"conceptId": "C106512", "definition": "A relative measurement (ratio or percentage) of the cortisol to creatinine present in a sample.", "preferredTerm": "Cortisol to Creatinine Ratio Measurement", "submissionValue": "Cortisol/Creatinine", "synonyms": ["Cortisol/Creatinine"]}, {"conceptId": "C92249", "definition": "A measurement of the cotinine in a biological specimen.", "preferredTerm": "Cotinine Measurement", "submissionValue": "Cotinine", "synonyms": ["Cotinine"]}, {"conceptId": "C147280", "definition": "A measurement of the cow milk protein antigen IgE antibody in a biological specimen.", "preferredTerm": "Cow Milk Protein Antigen IgE Antibody Measurement", "submissionValue": "Cow Milk Protein Antigen IgE Antibody", "synonyms": ["Cow Milk Protein Antigen IgE Antibody"]}, {"conceptId": "C64489", "definition": "A measurement of the total creatine kinase in a biological specimen.", "preferredTerm": "Creatine Kinase Measurement", "submissionValue": "Creatine Kinase", "synonyms": ["CPK", "Creatine Kinase"]}, {"conceptId": "C64490", "definition": "A measurement of the homozygous B-type creatine kinase in a biological specimen.", "preferredTerm": "Creatine Kinase BB Measurement", "submissionValue": "Creatine Kinase BB", "synonyms": ["Creatine Kinase BB"]}, {"conceptId": "C79466", "definition": "A relative measurement (ratio or percentage) of the BB-type creatine kinase to total creatine kinase in a biological specimen.", "preferredTerm": "Creatine Kinase BB to Total Creatine Kinase Ratio Measurement", "submissionValue": "Creatine Kinase BB/Total Creatine Kinase", "synonyms": ["Creatine Kinase BB/Total Creatine Kinase"]}, {"conceptId": "C64491", "definition": "A measurement of the heterozygous MB-type creatine kinase in a biological specimen.", "preferredTerm": "Creatine Kinase MB Measurement", "submissionValue": "Creatine Kinase MB", "synonyms": ["Creatine Kinase MB"]}, {"conceptId": "C79441", "definition": "A relative measurement (ratio or percentage) of the MB-type creatine kinase to total creatine kinase in a biological specimen.", "preferredTerm": "Creatine Kinase MB to Total Creatine Kinase Ratio Measurement", "submissionValue": "Creatine Kinase MB/Total Creatine Kinase", "synonyms": ["Creatine Kinase MB/Total Creatine Kinase"]}, {"conceptId": "C64494", "definition": "A measurement of the homozygous M-type creatine kinase in a biological specimen.", "preferredTerm": "Creatine Kinase MM Measurement", "submissionValue": "Creatine Kinase MM", "synonyms": ["Creatine Kinase MM"]}, {"conceptId": "C79442", "definition": "A relative measurement (ratio or percentage) of the MM-type creatine kinase to total creatine kinase in a biological specimen.", "preferredTerm": "Creatine Kinase MM to Total Creatine Kinase Ratio Measurement", "submissionValue": "Creatine Kinase MM/Total Creatine Kinase", "synonyms": ["Creatine Kinase MM/Total Creatine Kinase"]}, {"conceptId": "C64547", "definition": "A measurement of the creatinine in a biological specimen.", "preferredTerm": "Creatinine Measurement", "submissionValue": "Creatinine", "synonyms": ["Creatinine"]}, {"conceptId": "C25747", "definition": "A measurement of the volume of serum or plasma that would be cleared of creatinine by excretion of urine for a specified unit of time (e.g. one minute).", "preferredTerm": "Creatinine Clearance", "submissionValue": "Creatinine Clearance", "synonyms": ["Creatinine Clearance"]}, {"conceptId": "C147324", "definition": "A measurement of the volume of serum or plasma that would be cleared of creatinine by excretion of urine for a specified unit of time (e.g. one minute), adjusted for body surface area.", "preferredTerm": "Creatinine Clearance Adjusted for BSA", "submissionValue": "Creatinine Clearance Adjusted for BSA", "synonyms": ["Creatinine Clearance Adjusted for BSA"]}, {"conceptId": "C117833", "definition": "A measurement of the amount of creatinine being excreted in urine over a defined amount of time (e.g. one hour).", "preferredTerm": "Creatinine Urine Excretion Rate", "submissionValue": "Creatinine Excretion Rate", "synonyms": ["Creatinine Excretion Rate"]}, {"conceptId": "C74703", "definition": "A measurement of the Burr cells (erythrocytes characterized by the presence of multiple small, sharp projections evenly distributed across the cell surface) in a biological specimen.", "preferredTerm": "Crenated Cell Measurement", "submissionValue": "Crenated Cells", "synonyms": ["Crenated Cells", "Echinocytes"]}, {"conceptId": "C147326", "definition": "A measurement of the cryofibrinogen in a biological specimen.", "preferredTerm": "Cryofibrinogen Measurement", "submissionValue": "Cryofibrinogen", "synonyms": ["Cryofibrinogen"]}, {"conceptId": "C111164", "definition": "A measurement of cryoglobulin in a biological specimen.", "preferredTerm": "Cryoglobulin Measurement", "submissionValue": "Cryoglobulin", "synonyms": ["Cryoglobulin"]}, {"conceptId": "C147325", "definition": "A relative measurement (ratio or percentage) of the volume of cryoglobulin to total serum volume in a biological specimen.", "preferredTerm": "Cryoglobulin Volume to Serum Volume Ratio Measurement", "submissionValue": "Cryoglobulin Volume/Serum Volume", "synonyms": ["Cryoglobulin Volume/Serum Volume"]}, {"conceptId": "C74673", "definition": "A statement that indicates crystals were looked for in a biological specimen.", "preferredTerm": "Crystal Present Or Absent", "submissionValue": "Crystals", "synonyms": ["Crystals"]}, {"conceptId": "C124339", "definition": "A measurement of cyclic adenosine 3,5-monophosphate in a biological specimen.", "preferredTerm": "Cyclic Adenosine 3,5-Monophosphate Measurement", "submissionValue": "Cyclic Adenosine 3,5-Monophosphate", "synonyms": ["Cyclic Adenosine 3,5-Monophosphate"]}, {"conceptId": "C96595", "definition": "A measurement of the cyclic citrullinated peptide antibody in a biological specimen.", "preferredTerm": "Cyclic Citrullinated Peptide Antibody Measurement", "submissionValue": "Cyclic Citrullinated Peptide Antibody", "synonyms": ["Cyclic Citrullinated Peptide Antibody"]}, {"conceptId": "C147316", "definition": "A measurement of the cyclic citrullinated peptide IgG antibody in a biological specimen.", "preferredTerm": "Cyclic Citrullinated Peptide IgG Antibody Measurement", "submissionValue": "Cyclic Citrullinated Peptide IgG Ab", "synonyms": ["Cyclic Citrullinated Peptide IgG Ab", "Cyclic Citrullinated Peptide IgG Antibody"]}, {"conceptId": "C111165", "definition": "A measurement of the cyclic guanosine 3,5-monophosphate in a biological specimen.", "preferredTerm": "Cyclic Guanosine Monophosphate Measurement", "submissionValue": "Cyclic Guanosine Monophosphate", "synonyms": ["Cyclic Guanosine Monophosphate"]}, {"conceptId": "C147331", "definition": "A measurement of the cystathionine in a biological specimen.", "preferredTerm": "Cystathionine Measurement", "submissionValue": "Cystathionine", "synonyms": ["Cystathionine"]}, {"conceptId": "C92290", "definition": "A measurement of the cystatin C in a biological specimen.", "preferredTerm": "Cystatin C Measurement", "submissionValue": "Cystatin C", "synonyms": ["Cystatin C"]}, {"conceptId": "C106513", "definition": "A relative measurement (ratio or percentage) of the cystatin C to creatinine present in a sample.", "preferredTerm": "Cystatin C to Creatinine Ratio Measurement", "submissionValue": "Cystatin C/Creatinine", "synonyms": ["Cystatin C/Creatinine"]}, {"conceptId": "C105441", "definition": "A measurement of the cystine in a biological specimen.", "preferredTerm": "Cystine Measurement", "submissionValue": "Cystine", "synonyms": ["Cystine"]}, {"conceptId": "C74674", "definition": "A measurement of the cystine crystals present in a biological specimen.", "preferredTerm": "Cystine Crystal Measurement", "submissionValue": "Cystine Crystals", "synonyms": ["Cystine Crystals"]}, {"conceptId": "C130160", "definition": "A measurement of the cytokeratin 18 fragment in a biological specimen.", "preferredTerm": "Cytokeratin 18 Fragment Measurement", "submissionValue": "Cytokeratin 18 Fragment", "synonyms": ["Cytokeratin 18 Fragment"]}, {"conceptId": "C106514", "definition": "A measurement of the cytokeratin 19 fragment 21-1 in a biological specimen.", "preferredTerm": "Cytokeratin 19 Fragment 21-1 Measurement", "submissionValue": "Cytokeratin 19 Fragment 21-1", "synonyms": ["CYFRA21-1", "Cytokeratin 19 Fragment 21-1"]}, {"conceptId": "C96596", "definition": "A measurement of the cytomegalovirus IgG antibody in a biological specimen.", "preferredTerm": "Cytomegalovirus IgG Antibody Measurement", "submissionValue": "Cytomegalovirus IgG Antibody", "synonyms": ["Cytomegalovirus IgG Antibody"]}, {"conceptId": "C96597", "definition": "A measurement of the cytomegalovirus IgM antibody in a biological specimen.", "preferredTerm": "Cytomegalovirus IgM Antibody Measurement", "submissionValue": "Cytomegalovirus IgM Antibody", "synonyms": ["Cytomegalovirus IgM Antibody"]}, {"conceptId": "C111166", "definition": "A measurement of the neutrophils in a biological specimen showing a dark staining pattern in the cytoplasm due to increased acidic content.", "preferredTerm": "Cytoplasmic Basophilia Neutrophil Count", "submissionValue": "Cytoplasmic Basophilia Neutrophil", "synonyms": ["Cytoplasmic Basophilia Neutrophil"]}, {"conceptId": "C82621", "definition": "A measurement of the d-dimers in a biological specimen.", "preferredTerm": "D-Dimer Measurement", "submissionValue": "D-Dimer", "synonyms": ["D-Dimer"]}, {"conceptId": "C130132", "definition": "A measurement of the Dermatophagoides farinae antigen IgE antibody in a biological specimen.", "preferredTerm": "Dermatophagoides farinae Antigen IgE Antibody Measurement", "submissionValue": "D. farinae Antigen IgE Antibody", "synonyms": ["D. farinae Antigen IgE Antibody"]}, {"conceptId": "C130133", "definition": "A measurement of the Dermatophagoides farinae antigen IgG antibody in a biological specimen.", "preferredTerm": "Dermatophagoides farinae Antigen IgG Antibody Measurement", "submissionValue": "D. farinae Antigen IgG Antibody", "synonyms": ["D. farinae Antigen IgG Antibody"]}, {"conceptId": "C130134", "definition": "A measurement of the Dermatophagoides pteronyssinus antigen IgE antibody in a biological specimen.", "preferredTerm": "Dermatophagoides pteronyssinus Antigen IgE Antibody Measurement", "submissionValue": "D. pteronyssinus Antigen IgE Antibody", "synonyms": ["D. pteronyssinus Antigen IgE Antibody"]}, {"conceptId": "C130135", "definition": "A measurement of the Dermatophagoides pteronyssinus antigen IgG antibody in a biological specimen.", "preferredTerm": "Dermatophagoides pteronyssinus Antigen IgG Antibody Measurement", "submissionValue": "D. pteronyssinus Antigen IgG Antibody", "synonyms": ["D. pteronyssinus Antigen IgG Antibody"]}, {"conceptId": "C135408", "definition": "A measurement of the deoxyribonucleic acid fragmentation within the nucleated cells of a biological specimen.", "preferredTerm": "DNA Fragmentation Index", "submissionValue": "DNA Fragmentation Index", "synonyms": ["DNA Fragmentation Index"]}, {"conceptId": "C100463", "definition": "A measurement of Dnase-B antibody in a biological specimen.", "preferredTerm": "DNase-B Antibody Measurement", "submissionValue": "DNase-B Antibody", "synonyms": ["Anti-Dnase B", "DNase-B Antibody"]}, {"conceptId": "C100441", "definition": "A measurement of the volume of serum or plasma that would be cleared of Diethylenetriamine pentaacetate (DTPA) by excretion of urine for a specified unit of time (e.g. one minute).", "preferredTerm": "Diethylene Triamine Pentaacetic Acid Clearance", "submissionValue": "DTPA Clearance", "synonyms": ["DTPA Clearance"]}, {"conceptId": "C64801", "definition": "A measurement of dacryocytes in a biological specimen.", "preferredTerm": "Dacryocyte Analysis", "submissionValue": "Dacryocytes", "synonyms": ["Dacryocytes", "Tear Shaped Erythrocytes", "Teardrop Cells"]}, {"conceptId": "C130119", "definition": "A measurement of the dairy mix antigen IgG antibody in a biological specimen.", "preferredTerm": "Dairy Mix Antigen IgG Antibody Measurement", "submissionValue": "Dairy Mix Antigen IgG Antibody", "synonyms": ["Dairy Mix Antigen IgG Antibody"]}, {"conceptId": "C111190", "definition": "A measurement of the degenerated leukocytes (leukocytes that show deterioration in form or function) in a biological specimen.", "preferredTerm": "Degenerated Leukocyte Count", "submissionValue": "Degenerated Leukocytes", "synonyms": ["Degenerated Leukocytes", "Degenerated WBC", "Degenerated White Blood Cells"]}, {"conceptId": "C74852", "definition": "A measurement of the dehydroepiandrosterone hormone in a biological specimen.", "preferredTerm": "Dehydroepiandrosterone Measurement", "submissionValue": "Dehydroepiandrosterone", "synonyms": ["Dehydroepiandrosterone", "Dehydroisoandrosterone"]}, {"conceptId": "C96629", "definition": "A measurement of the sulfated Dehydroepiandrosterone in a biological specimen.", "preferredTerm": "Sulfated DHEA Measurement", "submissionValue": "Dehydroepiandrosterone Sulfate", "synonyms": ["DHEA Sulfate", "DHEA-S", "Dehydroepiandrosterone Sulfate", "sDHEA"]}, {"conceptId": "C147332", "definition": "A measurement of the dengue virus antibody in a biological specimen.", "preferredTerm": "Dengue Virus Antibody Measurement", "submissionValue": "Dengue Virus Antibody", "synonyms": ["Dengue Virus Antibody"]}, {"conceptId": "C45781", "definition": "A measurement of the compactness of a biological specimen expressed in mass per unit volume.", "preferredTerm": "Density", "submissionValue": "Density", "synonyms": ["Density"]}, {"conceptId": "C124343", "definition": "A measurement of the deoxyhemoglobin, hemoglobin without oxygen, in a biological specimen.", "preferredTerm": "Deoxyhemoglobin Measurement", "submissionValue": "Deoxyhemoglobin", "synonyms": ["Deoxyhemoglobin"]}, {"conceptId": "C79443", "definition": "A measurement of the deoxypyridinoline in a biological specimen.", "preferredTerm": "Deoxypyridinoline Measurement", "submissionValue": "Deoxypyridinoline", "synonyms": ["Deoxypyridinoline"]}, {"conceptId": "C79444", "definition": "A relative measurement (ratio or percentage) of the deoxypyridinoline to creatinine in a biological specimen.", "preferredTerm": "Deoxypyridinoline to Creatinine Ratio Measurement", "submissionValue": "Deoxypyridinoline/Creatinine", "synonyms": ["Deoxypyridinoline/Creatinine"]}, {"conceptId": "C135409", "definition": "A measurement of a targeted deoxyribonucleic acid (DNA) in a biological specimen.", "preferredTerm": "Deoxyribonucleic Acid Measurement", "submissionValue": "Deoxyribonucleic Acid", "synonyms": ["Deoxyribonucleic Acid"]}, {"conceptId": "C122114", "definition": "A measurement of the desmoglein 1 antibody in a biological specimen.", "preferredTerm": "Desmoglein 1 Antibody Measurement", "submissionValue": "Desmoglein 1 Antibody", "synonyms": ["Desmoglein 1 Antibody"]}, {"conceptId": "C122115", "definition": "A measurement of the desmoglein 3 antibody in a biological specimen.", "preferredTerm": "Desmoglein 3 Antibody Measurement", "submissionValue": "Desmoglein 3 Antibody", "synonyms": ["Desmoglein 3 Antibody"]}, {"conceptId": "C147333", "definition": "A measurement of the desvenlafaxine present in a biological specimen.", "preferredTerm": "Desvenlafaxine Measurement", "submissionValue": "Desvenlafaxine", "synonyms": ["Desvenlafaxine", "O-Desmethylvenlafaxine"]}, {"conceptId": "C102262", "definition": "A measurement of the dextroamphetamine in a biological specimen.", "preferredTerm": "Dextroamphetamine Measurement", "submissionValue": "Dextroamphetamine", "synonyms": ["Dextroamphetamine", "d-amphetamine"]}, {"conceptId": "C75372", "definition": "A measurement of the diazepam present in a biological specimen.", "preferredTerm": "Diazepam Measurement", "submissionValue": "Diazepam", "synonyms": ["Diazepam"]}, {"conceptId": "C135407", "definition": "A measurement of dicalcium phosphate crystals in a biological specimen.", "preferredTerm": "Dicalcium Phosphate Crystals Measurement", "submissionValue": "Dicalcium Phosphate Crystals", "synonyms": ["Dicalcium Phosphate Crystals"]}, {"conceptId": "C74878", "definition": "A measurement of the dihydrocodeine present in a biological specimen.", "preferredTerm": "Dihydrocodeine Measurement", "submissionValue": "Dihydrocodeine", "synonyms": ["Dihydrocodeine"]}, {"conceptId": "C74853", "definition": "A measurement of the dihydrotestosterone hormone in a biological specimen.", "preferredTerm": "Dihydrotestosterone Measurement", "submissionValue": "Dihydrotestosterone", "synonyms": ["Androstanalone", "Dihydrotestosterone"]}, {"conceptId": "C96696", "definition": "A measurement of the time it takes a plasma sample to clot after adding dilute Russell's viper venom.", "preferredTerm": "Dilute Russell's Viper Venom Time Measurement", "submissionValue": "Dilute Russell's Viper Venom Time", "synonyms": ["Dilute Russell's Viper Venom Time", "Lupus Anticoagulant Test"]}, {"conceptId": "C103386", "definition": "A relative measurement of the dilute Russell's viper venom time in a subject sample to a control sample.", "preferredTerm": "Dilute Russell's Viper Venom Time to Control Ratio Measurement", "submissionValue": "Dilute Russell's Viper Venom Time Ratio", "synonyms": ["Dilute Russell's Viper Venom Time Ratio", "Lupus Anticoagulant Ratio"]}, {"conceptId": "C117853", "definition": "Examination of a biological specimen to detect the presence of dimorphic erythrocyte population.", "preferredTerm": "Dimorphic Erythrocyte Population", "submissionValue": "Dimorphic Erythrocyte Population", "synonyms": ["Dimorphic Erythrocyte Population", "Dimorphic RBC Population"]}, {"conceptId": "C103387", "definition": "A measurement of the biological activity of dipeptidyl peptidase-4 in a biological specimen.", "preferredTerm": "Dipeptidyl Peptidase-4 Activity Measurement", "submissionValue": "Dipeptidyl Peptidase-4 Activity", "synonyms": ["DPPIV Activity", "Dipeptidyl Peptidase-4 Activity"]}, {"conceptId": "C103388", "definition": "A measurement of the Diphtheria IgG antibodies in a biological specimen.", "preferredTerm": "Diphtheria IgG Antibody Measurement", "submissionValue": "Diphtheria IgG Antibody", "synonyms": ["Diphtheria IgG Antibody"]}, {"conceptId": "C64481", "definition": "A measurement of the conjugated or water-soluble bilirubin in a biological specimen.", "preferredTerm": "Direct Bilirubin Measurement", "submissionValue": "Direct Bilirubin", "synonyms": ["Direct Bilirubin"]}, {"conceptId": "C130130", "definition": "A measurement of the Canis lupus dander antigen IgA antibody in a biological specimen.", "preferredTerm": "Dog Dander Antigen IgA Antibody Measurement", "submissionValue": "Dog Dander Antigen IgA Antibody", "synonyms": ["Dog Dander Antigen IgA Antibody"]}, {"conceptId": "C130128", "definition": "A measurement of the Canis lupus dander antigen IgE antibody in a biological specimen.", "preferredTerm": "Dog Dander Antigen IgE Antibody Measurement", "submissionValue": "Dog Dander Antigen IgE Antibody", "synonyms": ["Dog Dander Antigen IgE Antibody"]}, {"conceptId": "C130129", "definition": "A measurement of the Canis lupus dander antigen IgG antibody in a biological specimen.", "preferredTerm": "Dog Dander Antigen IgG Antibody Measurement", "submissionValue": "Dog Dander Antigen IgG Antibody", "synonyms": ["Dog Dander Antigen IgG Antibody"]}, {"conceptId": "C130131", "definition": "A measurement of the Canis lupus dander antigen IgG4 antibody in a biological specimen.", "preferredTerm": "Dog Dander Antigen IgG4 Antibody Measurement", "submissionValue": "Dog Dander Antigen IgG4 Antibody", "synonyms": ["Dog Dander Antigen IgG4 Antibody"]}, {"conceptId": "C74610", "definition": "A measurement of the Dohle bodies (blue-gray, basophilic, leukocyte inclusions located in the peripheral cytoplasm of neutrophils) in a biological specimen.", "preferredTerm": "Dohle Body Measurement", "submissionValue": "Dohle Bodies", "synonyms": ["Dohle Bodies"]}, {"conceptId": "C74854", "definition": "A measurement of the dopamine hormone in a biological specimen.", "preferredTerm": "Dopamine Measurement", "submissionValue": "Dopamine", "synonyms": ["Dopamine"]}, {"conceptId": "C78139", "definition": "An indication of the presence or absence of recreational drugs or drugs of abuse in a biological specimen.", "preferredTerm": "Drug Test", "submissionValue": "Drug Screen", "synonyms": ["Drug Screen"]}, {"conceptId": "C135441", "definition": "A measurement of the dysmorphic erythrocytes in a biological specimen.", "preferredTerm": "Dysmorphic Erythrocyte Count", "submissionValue": "Dysmorphic Erythrocytes", "synonyms": ["Dysmorphic Erythrocytes"]}, {"conceptId": "C106519", "definition": "An assessment of Epstein-Barr virus infection based on a panel of EBV antigen antibody tests.", "preferredTerm": "Epstein-Barr Virus Profile Interpretation", "submissionValue": "EBV Profile Interpretation", "synonyms": ["EBV Profile Interpretation", "Epstein-Barr Virus Antibody Profile", "Epstein-Barr Virus Panel", "Epstein-Barr Virus Profile Interpretation"]}, {"conceptId": "C100440", "definition": "A measurement of the volume of serum or plasma that would be cleared of Ethylenediamine tetraacetic acid (EDTA) by excretion of urine for a specified unit of time (e.g. one minute).", "preferredTerm": "EDTA Clearance", "submissionValue": "EDTA Clearance", "synonyms": ["EDTA Clearance"]}, {"conceptId": "C102263", "definition": "A measurement of the area under the thrombin generation curve.", "preferredTerm": "Endogenous Thrombin Potential Area Under Curve Measurement", "submissionValue": "ETP Area Under Curve", "synonyms": ["ETP Area Under Curve", "Endogenous Thrombin Potential Area Under Curve"]}, {"conceptId": "C102264", "definition": "A measurement of time from the start of the thrombin generation test to the point where a predetermined amount of thrombin is generated.", "preferredTerm": "Endogenous Thrombin Potential Lag Time Measurement", "submissionValue": "ETP Lag Time", "synonyms": ["ETP Lag Time", "Endogenous Thrombin Potential Lag Time"]}, {"conceptId": "C102265", "definition": "A relative measurement (ratio or percentage) of time from the start of the thrombin generation test to the point where a predetermined amount of thrombin is generated.", "preferredTerm": "Endogenous Thrombin Potential Lag Time Relative Measurement", "submissionValue": "ETP Lag Time Relative", "synonyms": ["ETP Lag Time Relative", "Endogenous Thrombin Potential Lag Time Relative"]}, {"conceptId": "C102267", "definition": "A measurement of the maximum concentration of thrombin generated during a thrombin generation test.", "preferredTerm": "Endogenous Thrombin Potential Peak Height Measurement", "submissionValue": "ETP Peak Height", "synonyms": ["ETP Peak Height", "Endogenous Thrombin Potential Peak Height"]}, {"conceptId": "C102268", "definition": "A relative (ratio or percentage) of the maximum concentration of thrombin generated during a thrombin generation test.", "preferredTerm": "Endogenous Thrombin Potential Peak Height Relative Measurement", "submissionValue": "ETP Peak Height Relative", "synonyms": ["ETP Peak Height Relative", "Endogenous Thrombin Potential Peak Height Relative"]}, {"conceptId": "C102269", "definition": "A measurement of the time it takes to generate the maximum concentration of thrombin.", "preferredTerm": "Endogenous Thrombin Potential Time to Peak Measurement", "submissionValue": "ETP Time to Peak", "synonyms": ["ETP Time to Peak", "Endogenous Thrombin Potential Time to Peak"]}, {"conceptId": "C102270", "definition": "A relative (ratio or percentage) measurement of the time it takes to generate the maximum concentration of thrombin.", "preferredTerm": "Endogenous Thrombin Potential Time to Peak Relative Measurement", "submissionValue": "ETP Time to Peak Relative", "synonyms": ["ETP Time to Peak Relative", "Endogenous Thrombin Potential Time to Peak Relative"]}, {"conceptId": "C135410", "definition": "A measurement of the Ebola virus IgM antibodies in a biological specimen.", "preferredTerm": "Ebola Virus IgM Antibody Measurement", "submissionValue": "Ebola Virus IgM Antibody", "synonyms": ["Ebola Virus IgM Antibody"]}, {"conceptId": "C100422", "definition": "A measurement of the activity of thrombin inhibitors in a biological specimen based on the generation of meizothrombin.", "preferredTerm": "Ecarin Clotting Time Measurement", "submissionValue": "Ecarin Clotting Time", "synonyms": ["Ecarin Clotting Time"]}, {"conceptId": "C96598", "definition": "A measurement of the eccentrocytes (erythrocytes in which the hemoglobin is localized to a particular portion of the cell, noticeable as localized staining) in a biological specimen.", "preferredTerm": "Eccentrocyte Count", "submissionValue": "Eccentrocytes", "synonyms": ["Eccentrocytes"]}, {"conceptId": "C147281", "definition": "A measurement of the egg white antigen IgE antibody in a biological specimen.", "preferredTerm": "Egg White Antigen IgE Antibody Measurement", "submissionValue": "Egg White Antigen IgE Antibody", "synonyms": ["Egg White Antigen IgE Antibody"]}, {"conceptId": "C64549", "definition": "A measurement of the elliptocytes (elliptically shaped cell with blunt ends and a long axis twice the length of its short axis) in a biological specimen.", "preferredTerm": "Elliptocyte Count", "submissionValue": "Elliptocytes", "synonyms": ["Elliptocytes"]}, {"conceptId": "C102266", "definition": "A measurement of the total concentration of thrombin generated in the presence of a substrate in a plasma or blood sample.", "preferredTerm": "Endogenous Thrombin Potential Measurement", "submissionValue": "Endogenous Thrombin Potential", "synonyms": ["Endogenous Thrombin Potential"]}, {"conceptId": "C147334", "definition": "A measurement of the endomysial IgA antibody in a biological specimen.", "preferredTerm": "Endomysial IgA Antibody Measurement", "submissionValue": "Endomysial IgA Antibody", "synonyms": ["Endomysium IgA Antibody"]}, {"conceptId": "C82008", "definition": "A measurement of the endothelin-1 in a biological specimen.", "preferredTerm": "Endothelin-1 Measurement", "submissionValue": "Endothelin-1", "synonyms": ["Endothelin-1"]}, {"conceptId": "C130085", "definition": "A measurement of the Plantagio lanceolata pollen antigen IgA antibody in a biological specimen.", "preferredTerm": "English Plantain Pollen IgA Measurement", "submissionValue": "English Plantain Pollen IgA", "synonyms": ["English Plantain Pollen IgA"]}, {"conceptId": "C130084", "definition": "A measurement of the Plantagio lanceolata pollen antigen IgE antibody in a biological specimen.", "preferredTerm": "English Plantain Pollen IgE Measurement", "submissionValue": "English Plantain Pollen IgE", "synonyms": ["English Plantain Pollen IgE"]}, {"conceptId": "C130086", "definition": "A measurement of the Plantagio lanceolata pollen antigen IgG antibody in a biological specimen.", "preferredTerm": "English Plantain Pollen IgG Measurement", "submissionValue": "English Plantain Pollen IgG", "synonyms": ["English Plantain Pollen IgG"]}, {"conceptId": "C130087", "definition": "A measurement of the Plantagio lanceolata pollen antigen IgG4 antibody in a biological specimen.", "preferredTerm": "English Plantain Pollen IgG4 Measurement", "submissionValue": "English Plantain Pollen IgG4", "synonyms": ["English Plantain Pollen IgG4"]}, {"conceptId": "C84819", "definition": "A measurement of the eosinphilic metamyelocytes in a biological specimen.", "preferredTerm": "Eosinophilic Metamyelocyte Count", "submissionValue": "Eosinophilic Metamyelocytes", "synonyms": ["Eosinophilic Metamyelocytes"]}, {"conceptId": "C84821", "definition": "A measurement of the eosinophilic myelocytes in a biological specimen.", "preferredTerm": "Eosinophilic Myelocyte Count", "submissionValue": "Eosinophilic Myelocytes", "synonyms": ["Eosinophilic Myelocytes"]}, {"conceptId": "C64550", "definition": "A measurement of the eosinophils in a biological specimen.", "preferredTerm": "Eosinophil Count", "submissionValue": "Eosinophils", "synonyms": ["Eosinophils"]}, {"conceptId": "C114216", "definition": "A measurement of the banded eosinophils in a biological specimen.", "preferredTerm": "Eosinophil Band Form Count", "submissionValue": "Eosinophils Band Form", "synonyms": ["Eosinophils Band Form"]}, {"conceptId": "C114217", "definition": "A relative measurement (ratio or percentage) of the banded eosinophils to leukocytes in a biological specimen.", "preferredTerm": "Eosinophil Band Form to Leukocyte Ratio", "submissionValue": "Eosinophils Band Form/Leukocytes", "synonyms": ["Eosinophils Band Form/Leukocytes"]}, {"conceptId": "C135412", "definition": "A measurement of the segmented eosinophils in a biological specimen.", "preferredTerm": "Segmented Eosinophil Count", "submissionValue": "Eosinophils, Segmented", "synonyms": ["Eosinophils, Segmented"]}, {"conceptId": "C64604", "definition": "A relative measurement (ratio or percentage) of the eosinophils to leukocytes in a biological specimen.", "preferredTerm": "Eosinophil to Leukocyte Ratio", "submissionValue": "Eosinophils/Leukocytes", "synonyms": ["Eosinophils/Leukocytes"]}, {"conceptId": "C135411", "definition": "A relative measurement (ratio or percentage) of the eosinophils to non-squamous epithelial cells in a biological specimen.", "preferredTerm": "Eosinophils to Non-Squamous Epithelial Cells Ratio Measurement", "submissionValue": "Eosinophils/Non-Squam Epi Cells", "synonyms": ["Eosinophils/Non-Squam Epi Cells"]}, {"conceptId": "C98720", "definition": "A relative measurement (ratio or percentage) of the eosinophils to total cells in a biological specimen (for example a bone marrow specimen).", "preferredTerm": "Eosinophils to Total Cell Ratio Measurement", "submissionValue": "Eosinophils/Total Cells", "synonyms": ["Eosinophils/Total Cells"]}, {"conceptId": "C81952", "definition": "A measurement of the eotaxin-1 in a biological specimen.", "preferredTerm": "Eotaxin-1 Measurement", "submissionValue": "Eotaxin-1", "synonyms": ["Chemokine Ligand 11", "Eotaxin-1"]}, {"conceptId": "C81953", "definition": "A measurement of the eotaxin-2 in a biological specimen.", "preferredTerm": "Eotaxin-2 Measurement", "submissionValue": "Eotaxin-2", "synonyms": ["Chemokine Ligand 24", "Eotaxin-2"]}, {"conceptId": "C81954", "definition": "A measurement of the eotaxin-3 in a biological specimen.", "preferredTerm": "Eotaxin-3 Measurement", "submissionValue": "Eotaxin-3", "synonyms": ["CCL26", "Chemokine (C-C Motif) Ligand 26", "Chemokine Ligand 26", "Eotaxin-3"]}, {"conceptId": "C135414", "definition": "A relative measurement (ratio or percentage) of the epithelial cells to non-squamous epithelial cells in a biological specimen.", "preferredTerm": "Epithelial Cells to Non-Squamous Epithelial Cells Ratio Measurement", "submissionValue": "Epi Cells/Non-Squam Epi Cells", "synonyms": ["Epi Cells/Non-Squam Epi Cells"]}, {"conceptId": "C82009", "definition": "A measurement of the epidermal growth factor in a biological specimen.", "preferredTerm": "Epidermal Growth Factor Measurement", "submissionValue": "Epidermal Growth Factor", "synonyms": ["Epidermal Growth Factor"]}, {"conceptId": "C112273", "definition": "A measurement of the cells with positive expression of EGFR in a biological specimen.", "preferredTerm": "Epidermal Growth Factor Receptor Measurement", "submissionValue": "Epidermal Growth Factor Receptor", "synonyms": ["ERBB1", "Epidermal Growth Factor Receptor", "HER1"]}, {"conceptId": "C79445", "definition": "A measurement of the epinephrine hormone in a biological specimen.", "preferredTerm": "Epinephrine Measurement", "submissionValue": "Epinephrine", "synonyms": ["Adrenaline", "Epinephrine"]}, {"conceptId": "C82010", "definition": "A measurement of the epithelial neutrophil-activating peptide in a biological specimen.", "preferredTerm": "Epithelial Neutrophil-Activating Peptide 78 Measurement", "submissionValue": "Epith Neutrophil-Activating Peptide 78", "synonyms": ["Epith Neutrophil-Activating Peptide 78"]}, {"conceptId": "C74779", "definition": "A measurement of the epithelial cell casts present in a biological specimen.", "preferredTerm": "Epithelial-Cast Measurement", "submissionValue": "Epithelial Casts", "synonyms": ["Epithelial Casts"]}, {"conceptId": "C64605", "definition": "A measurement of the epithelial cells in a biological specimen.", "preferredTerm": "Epithelial Cell Count", "submissionValue": "Epithelial Cells", "synonyms": ["Epithelial Cells"]}, {"conceptId": "C130161", "definition": "A relative measurement (ratio or percentage) of the epithelial cells to total cells in a biological specimen.", "preferredTerm": "Epithelial Cells to Total Cells Ratio Measurement", "submissionValue": "Epithelial Cells/Total Cells", "synonyms": ["Epithelial Cells/Total Cells"]}, {"conceptId": "C96600", "definition": "A measurement of the Epstein-Barr capsid IgG antibody in a biological specimen.", "preferredTerm": "Epstein-Barr Capsid IgG Antibody Measurement", "submissionValue": "Epstein-Barr Capsid IgG Antibody", "synonyms": ["Epstein-Barr Capsid IgG Antibody"]}, {"conceptId": "C96601", "definition": "A measurement of the Epstein-Barr capsid IgM antibody in a biological specimen.", "preferredTerm": "Epstein-Barr Capsid IgM Antibody Measurement", "submissionValue": "Epstein-Barr Capsid IgM Antibody", "synonyms": ["Epstein-Barr Capsid IgM Antibody"]}, {"conceptId": "C96602", "definition": "A measurement of the Epstein-Barr early antigen in a biological specimen.", "preferredTerm": "Epstein-Barr Early Antigen Measurement", "submissionValue": "Epstein-Barr Early Antigen", "synonyms": ["Epstein-Barr Early Antigen"]}, {"conceptId": "C122116", "definition": "A measurement of the Epstein-Barr early diffuse antigen IgG antibody in a biological specimen.", "preferredTerm": "Epstein-Barr Early D Antigen IgG Antibody Measurement", "submissionValue": "Epstein-Barr Early D Antigen IgG Ab", "synonyms": ["Epstein-Barr Early D Antigen IgG Ab"]}, {"conceptId": "C96603", "definition": "A measurement of the Epstein-Barr nuclear antibody in a biological specimen.", "preferredTerm": "Epstein-Barr Nuclear Antibody Measurement", "submissionValue": "Epstein-Barr Nuclear Antibody", "synonyms": ["Epstein-Barr Nuclear Antibody", "Epstein-Barr Nuclear Antigen Antibody"]}, {"conceptId": "C96604", "definition": "A measurement of the Epstein-Barr nuclear antigen in a biological specimen.", "preferredTerm": "Epstein-Barr Nuclear Antigen Measurement", "submissionValue": "Epstein-Barr Nuclear Antigen", "synonyms": ["Epstein-Barr Nuclear Antigen"]}, {"conceptId": "C106518", "definition": "A measurement of the Epstein-Barr nuclear antigen 1 IgG antibody in a biological specimen.", "preferredTerm": "Epstein-Barr Nuclear Antigen 1 IgG Ab Measurement", "submissionValue": "Epstein-Barr Nuclear Antigen 1 IgG Ab", "synonyms": ["Epstein-Barr Nuclear Antigen 1 IgG Ab"]}, {"conceptId": "C64798", "definition": "An indirect measurement of the average concentration of hemoglobin per erythrocyte in a biological specimen, calculated as the ratio of hemoglobin to hematocrit.", "preferredTerm": "Erythrocyte Mean Corpuscular Hemoglobin Concentration", "submissionValue": "Ery. Mean Corpuscular HGB Concentration", "synonyms": ["Ery. Mean Corpuscular HGB Concentration"]}, {"conceptId": "C64797", "definition": "A measurement of the mean amount of hemoglobin per erythrocyte in a biological specimen, calculated as the product of hemoglobin times ten, divided by the number of erythrocytes.", "preferredTerm": "Erythrocyte Mean Corpuscular Hemoglobin", "submissionValue": "Ery. Mean Corpuscular Hemoglobin", "synonyms": ["Ery. Mean Corpuscular Hemoglobin"]}, {"conceptId": "C64799", "definition": "A measurement of the mean cellular volume per erythrocyte in a biological specimen.", "preferredTerm": "Erythrocyte Mean Corpuscular Volume", "submissionValue": "Ery. Mean Corpuscular Volume", "synonyms": ["Ery. Mean Corpuscular Volume", "Erythrocytes Mean Corpuscular Volume", "RBC Mean Corpuscular Volume"]}, {"conceptId": "C111197", "definition": "A measurement of the erythrocyte agglutination in a biological specimen.", "preferredTerm": "Erythrocyte Agglutination Measurement", "submissionValue": "Erythrocyte Agglutination", "synonyms": ["Autoagglutination", "Erythrocyte Agglutination", "RBC Agglutination"]}, {"conceptId": "C92245", "definition": "A measurement of red blood cell clumps in a biological specimen.", "preferredTerm": "Erythrocyte Cell Clumps Measurement", "submissionValue": "Erythrocyte Cell Clumps", "synonyms": ["Erythrocyte Cell Clumps", "RBC Aggregates", "RBC Clumps", "Red Blood Cell Clumps"]}, {"conceptId": "C92296", "definition": "An examination or assessment of the form and structure of red blood cells.", "preferredTerm": "Erythrocyte Cell Morphology", "submissionValue": "Erythrocyte Cell Morphology", "synonyms": ["Erythrocyte Cell Morphology", "RBC Morphology", "Red Blood Cell Morphology"]}, {"conceptId": "C116212", "definition": "A measurement of the red blood cell fragments (red cell fragments that have a reticular-like shape with rounded ends and no spicules, differentiating them from schistocytes and acanthocytes) in a biological specimen.", "preferredTerm": "Erythrocyte Fragment Measurement", "submissionValue": "Erythrocyte Fragment", "synonyms": ["Erythrocyte Fragment", "RBC Fragment"]}, {"conceptId": "C96605", "definition": "A measurement of the erythrocyte ghosts (erythrocytes in which hemoglobin has been removed through hemolysis) in a biological specimen.", "preferredTerm": "Erythrocyte Ghost Count", "submissionValue": "Erythrocyte Ghosts", "synonyms": ["Erythrocyte Ghosts", "RBC Ghosts"]}, {"conceptId": "C147339", "definition": "A measurement of the free erythrocyte protoporphyrin (zinc bound plus unbound protoporphyrin) in a biological specimen.", "preferredTerm": "Free Erythrocyte Protoporphyrin Measurement", "submissionValue": "Erythrocyte Protoporphyrin, Free", "synonyms": ["Erythrocyte Protoporphyrin, Free"]}, {"conceptId": "C74611", "definition": "The distance (e.g. millimeters) that red blood cells settle in unclotted blood over a specified unit of time (e.g. one hour).", "preferredTerm": "Erythrocyte Sedimentation Rate Measurement", "submissionValue": "Erythrocyte Sedimentation Rate", "synonyms": ["Biernacki Reaction", "Erythrocyte Sedimentation Rate"]}, {"conceptId": "C51946", "definition": "A measurement of the total erythrocytes in a biological specimen.", "preferredTerm": "Erythrocyte Count", "submissionValue": "Erythrocytes", "synonyms": ["Erythrocytes", "Red Blood Cells"]}, {"conceptId": "C64800", "definition": "A relative measurement (ratio or percentage) of the standard deviation of the red blood cell volume to the mean distribution of the red blood cell volume in a biological specimen.", "preferredTerm": "Erythrocyte Distribution Width Measurement", "submissionValue": "Erythrocytes Distribution Width", "synonyms": ["Erythrocytes Distribution Width", "RDW-CV", "Red Blood Cell Distribution Width", "Red Cell Volume Distribution Width"]}, {"conceptId": "C135415", "definition": "A relative measurement (ratio) of the sum of erythroid maturation phase cells (pool) to the sum of erythroid proliferative phase cells (pool) in a biological specimen.", "preferredTerm": "Erythroid Maturation Index", "submissionValue": "Erythroid Maturation Index", "synonyms": ["Erythroid Maturation Index"]}, {"conceptId": "C135416", "definition": "A measurement of the erythroid maturation phase cells (polychromatic rubricytes, normochromic rubricytes, and metarubricytes) in a biological specimen.", "preferredTerm": "Erythroid Maturation Pool Count", "submissionValue": "Erythroid Maturation Pool", "synonyms": ["Erythroid Maturation Pool"]}, {"conceptId": "C135417", "definition": "A relative measurement (ratio) of the sum of erythroid proliferative phase cells (pool) to the sum of erythroid maturation phase cells (pool) in a biological specimen.", "preferredTerm": "Erythroid Proliferation Index", "submissionValue": "Erythroid Proliferation Index", "synonyms": ["Erythroid Proliferation Index"]}, {"conceptId": "C135418", "definition": "A measurement of the erythroid proliferative phase cells (rubriblasts, prorubricytes, and basophilic rubricytes) in a biological specimen.", "preferredTerm": "Erythroid Proliferation Pool Count", "submissionValue": "Erythroid Proliferation Pool", "synonyms": ["Erythroid Proliferation Pool"]}, {"conceptId": "C74855", "definition": "A measurement of the erythropoietin hormone in a biological specimen.", "preferredTerm": "Erythropoietin Measurement", "submissionValue": "Erythropoietin", "synonyms": ["Erythropoietin", "Hematopoietin"]}, {"conceptId": "C74782", "definition": "A measurement of the estradiol in a biological specimen.", "preferredTerm": "Estradiol Measurement", "submissionValue": "Estradiol", "synonyms": ["Estradiol", "Oestradiol"]}, {"conceptId": "C74856", "definition": "A measurement of the estriol hormone in a biological specimen.", "preferredTerm": "Estriol Measurement", "submissionValue": "Estriol", "synonyms": ["Estriol", "Oestriol"]}, {"conceptId": "C81963", "definition": "A measurement of the free estriol in a biological specimen.", "preferredTerm": "Free Estriol Measurement", "submissionValue": "Estriol, Free", "synonyms": ["Estriol, Free", "Unconjugated Estriol"]}, {"conceptId": "C147335", "definition": "A measurement of the estrogen hormone in a biological specimen.", "preferredTerm": "Estrogen Measurement", "submissionValue": "Estrogen", "synonyms": ["Estrogen", "Oestrogen"]}, {"conceptId": "C112274", "definition": "A measurement of estrogen receptor protein in a biological specimen.", "preferredTerm": "Estrogen Receptor Measurement", "submissionValue": "Estrogen Receptor", "synonyms": ["ER", "ESR", "Estrogen Receptor", "Oestrogen Receptor"]}, {"conceptId": "C74857", "definition": "A measurement of the estrone hormone in a biological specimen.", "preferredTerm": "Estrone Measurement", "submissionValue": "Estrone", "synonyms": ["Estrone", "Oestrone"]}, {"conceptId": "C74693", "definition": "A measurement of the ethanol present in a biological specimen.", "preferredTerm": "Ethanol Measurement", "submissionValue": "Ethanol", "synonyms": ["Alcohol", "Ethanol"]}, {"conceptId": "C82011", "definition": "A measurement of the extracellular newly identified RAGE (receptor for advanced glycation end products) binding protein in a biological specimen.", "preferredTerm": "Extracell Newly Ident RAGE Bind Protein Measurement", "submissionValue": "Extracell Newly Ident RAGE Bind Protein", "synonyms": ["Extracell Newly Ident RAGE Bind Protein", "S100 Calcium Binding Protein A12"]}, {"conceptId": "C92270", "definition": "A measurement of the extractable nuclear antigen antibody in a biological specimen.", "preferredTerm": "Extractable Nuclear Antigen Antibody Measurement", "submissionValue": "Extractable Nuclear Antigen Antibody", "synonyms": ["Anti-ENA", "Extractable Nuclear Antigen Antibody"]}, {"conceptId": "C80180", "definition": "A measurement of the F2-isoprostane in a biological specimen.", "preferredTerm": "F2 Isoprostane Measurement", "submissionValue": "F2-Isoprostane", "synonyms": ["F2-Isoprostane"]}, {"conceptId": "C96626", "definition": "A measurement of the coagulation factor II in a biological specimen.", "preferredTerm": "Prothrombin Measurement", "submissionValue": "Factor II", "synonyms": ["Factor II", "Prothrombin"]}, {"conceptId": "C81959", "definition": "A measurement of the coagulation factor III in a biological specimen.", "preferredTerm": "Factor III Measurement", "submissionValue": "Factor III", "synonyms": ["Factor III", "Tissue Factor, CD142"]}, {"conceptId": "C98725", "definition": "A measurement of the coagulation factor IX in a biological specimen.", "preferredTerm": "Factor IX Measurement", "submissionValue": "Factor IX", "synonyms": ["Christmas Factor", "Factor IX"]}, {"conceptId": "C103395", "definition": "A measurement of the biological activity of coagulation factor IX in a biological specimen.", "preferredTerm": "Factor IX Activity Measurement", "submissionValue": "Factor IX Activity", "synonyms": ["Christmas Factor Activity", "Factor IX Activity"]}, {"conceptId": "C98726", "definition": "A measurement of the coagulation factor V in a biological specimen.", "preferredTerm": "Factor V Measurement", "submissionValue": "Factor V", "synonyms": ["Factor V", "Labile Factor"]}, {"conceptId": "C103396", "definition": "A measurement of the biological activity of coagulation factor V in a biological specimen.", "preferredTerm": "Factor V Activity Measurement", "submissionValue": "Factor V Activity", "synonyms": ["Factor V Activity", "Labile Factor Activity"]}, {"conceptId": "C102271", "definition": "A measurement of the coagulation factor V Leiden in a biological specimen.", "preferredTerm": "Factor V Leiden Measurement", "submissionValue": "Factor V Leiden", "synonyms": ["Factor V Leiden"]}, {"conceptId": "C81960", "definition": "A measurement of the coagulation factor VII in a biological specimen.", "preferredTerm": "Factor VII Measurement", "submissionValue": "Factor VII", "synonyms": ["Factor VII", "Proconvertin", "Stable Factor"]}, {"conceptId": "C103397", "definition": "A measurement of the biological activity of coagulation factor VII in a biological specimen.", "preferredTerm": "Factor VII Activity Measurement", "submissionValue": "Factor VII Activity", "synonyms": ["Factor VII Activity", "Proconvertin Activity", "Stable Factor Activity"]}, {"conceptId": "C81961", "definition": "A measurement of the coagulation factor VIII in a biological specimen.", "preferredTerm": "Factor VIII Measurement", "submissionValue": "Factor VIII", "synonyms": ["Anti-hemophilic Factor", "Factor VIII"]}, {"conceptId": "C103399", "definition": "A measurement of the biological activity of coagulation factor VIII in a biological specimen.", "preferredTerm": "Factor VIII Activity Measurement", "submissionValue": "Factor VIII Activity", "synonyms": ["Anti-hemophilic Factor Activity", "Factor VIII Activity"]}, {"conceptId": "C147345", "definition": "A relative measurement (ratio or percentage) of the biological activity of factor VIII dependent coagulation in a subject's specimen when compared to the same activity in a control specimen.", "preferredTerm": "Factor VIII Activity Actual to Control Ratio Measurement", "submissionValue": "Factor VIII Activity Actual/Control", "synonyms": ["Factor VIII Activity Actual/Control", "Factor VIII Activity Actual/Factor VIII Activity Control", "Factor VIII Activity Actual/Normal"]}, {"conceptId": "C103398", "definition": "A measurement of the biological activity of coagulation factor VIIa in a biological specimen.", "preferredTerm": "Factor VIIa Activity Measurement", "submissionValue": "Factor VIIa Activity", "synonyms": ["Factor VIIa Activity"]}, {"conceptId": "C98727", "definition": "A measurement of the coagulation factor X in a biological specimen.", "preferredTerm": "Factor X Measurement", "submissionValue": "Factor X", "synonyms": ["Factor X"]}, {"conceptId": "C122118", "definition": "A measurement of the coagulation factor X activity in a biological specimen.", "preferredTerm": "Factor X Activity Measurement", "submissionValue": "Factor X Activity", "synonyms": ["Factor X Activity"]}, {"conceptId": "C112277", "definition": "A measurement of the coagulation factor XIII in a biological specimen.", "preferredTerm": "Factor XIII Measurement", "submissionValue": "Factor XIII", "synonyms": ["Factor XIII", "Fibrin Stabilizing Factor"]}, {"conceptId": "C102272", "definition": "A measurement of the coagulation factor XIV in a biological specimen.", "preferredTerm": "Factor XIV Measurement", "submissionValue": "Factor XIV", "synonyms": ["Autoprothrombin IIA", "Factor XIV", "Protein C", "Protein C Antigen"]}, {"conceptId": "C105442", "definition": "A measurement of the coagulation factor XIV activity in a biological specimen.", "preferredTerm": "Factor XIV Activity Measurement", "submissionValue": "Factor XIV Activity", "synonyms": ["Factor XIV Activity", "Protein C Activity", "Protein C Function"]}, {"conceptId": "C147346", "definition": "A relative measurement (ratio or percentage) of the biological activity of factor XIV dependent coagulation in a subject's specimen when compared to the same activity in a control specimen.", "preferredTerm": "Factor XIV Activity Actual to Control Ratio Measurement", "submissionValue": "Factor XIV Activity Actual/Control", "synonyms": ["Factor XIV Activity Actual/Control", "Factor XIV Activity Actual/Factor XIV Activity Control", "Factor XIV Activity Actual/Normal"]}, {"conceptId": "C96648", "definition": "A measurement of the fat in a biological specimen.", "preferredTerm": "Fat Measurement", "submissionValue": "Fat", "synonyms": ["Fat"]}, {"conceptId": "C81947", "definition": "A measurement of the oval-shaped fat bodies, usually renal proximal tubular cells with lipid aggregates in the cytoplasm, in a biological specimen.", "preferredTerm": "Oval Fat Body Measurement", "submissionValue": "Fat Bodies, Oval", "synonyms": ["Fat Bodies, Oval"]}, {"conceptId": "C98728", "definition": "A measurement of the triglyceride aggregates within a biological specimen.", "preferredTerm": "Fat Droplet Measurement", "submissionValue": "Fat Droplet", "synonyms": ["Fat Droplet"]}, {"conceptId": "C82012", "definition": "A measurement of the fatty acid binding protein 1 in a biological specimen.", "preferredTerm": "Fatty Acid Binding Protein 1 Measurement", "submissionValue": "Fatty Acid Binding Protein 1", "synonyms": ["Fatty Acid Binding Protein 1"]}, {"conceptId": "C106521", "definition": "A measurement of the fatty acid binding protein 3 in a biological specimen.", "preferredTerm": "Fatty Acid Binding Protein 3 Measurement", "submissionValue": "Fatty Acid Binding Protein 3", "synonyms": ["Fatty Acid Binding Protein 3"]}, {"conceptId": "C147337", "definition": "A measurement of the very long chain fatty acids (containing 22 or more carbon atoms) in a biological specimen.", "preferredTerm": "Very Long Chain Fatty Acids Measurement", "submissionValue": "Fatty Acids, Very Long Chain", "synonyms": ["Fatty Acids, Very Long Chain"]}, {"conceptId": "C74766", "definition": "A measurement of the fatty casts present in a biological specimen.", "preferredTerm": "Fatty Cast Measurement", "submissionValue": "Fatty Casts", "synonyms": ["Fatty Casts"]}, {"conceptId": "C147338", "definition": "A measurement of the fentanyl in a biological specimen.", "preferredTerm": "Fentanyl Measurement", "submissionValue": "Fentanyl", "synonyms": ["Fentanyl"]}, {"conceptId": "C74737", "definition": "A measurement of the ferritin in a biological specimen.", "preferredTerm": "Ferritin Measurement", "submissionValue": "Ferritin", "synonyms": ["Ferritin"]}, {"conceptId": "C82013", "definition": "A measurement of the fibrin degradation products in a biological specimen.", "preferredTerm": "Fibrin Degradation Products Measurement", "submissionValue": "Fibrin Degradation Products", "synonyms": ["Fibrin Degradation Products"]}, {"conceptId": "C64606", "definition": "A measurement of the total fibrinogen (functional and non-functional) in a biological specimen.", "preferredTerm": "Fibrinogen Measurement", "submissionValue": "Fibrinogen", "synonyms": ["Fibrinogen", "Fibrinogen Antigen"]}, {"conceptId": "C139075", "definition": "A measurement of the functional fibrinogen (fibrinogen that is capable of being converted to fibrin) in a biological specimen.", "preferredTerm": "Functional Fibrinogen Measurement", "submissionValue": "Fibrinogen, Functional", "synonyms": ["Fibrinogen, Functional"]}, {"conceptId": "C105443", "definition": "A biomarker test that measures liver pathology through the assessment of a six-parameter blood test (for Alpha-2-macroglobulin, Haptoglobin, Apolipoprotein A1, Gamma-glutamyl transpeptidase (GGT), Total bilirubin, and Alanine aminotransferase (ALT)), taking into account the age and gender of the patient.", "preferredTerm": "FibroTest Score Measurement", "submissionValue": "FibroTest Score", "synonyms": ["FibroSURE Score", "FibroTest Score"]}, {"conceptId": "C112280", "definition": "A measurement of the fibroblast growth factor 21 in a biological specimen.", "preferredTerm": "Fibroblast Growth Factor 21 Measurement", "submissionValue": "Fibroblast Growth Factor 21", "synonyms": ["FGF 21", "Fibroblast Growth Factor 21"]}, {"conceptId": "C96650", "definition": "A measurement of the total fibroblast growth factor 23 in a biological specimen.", "preferredTerm": "Fibroblast Growth Factor 23 Measurement", "submissionValue": "Fibroblast Growth Factor 23", "synonyms": ["Fibroblast Growth Factor 23", "Phosphatonin"]}, {"conceptId": "C135419", "definition": "A measurement of the C-terminal fibroblast growth factor 23 in a biological specimen.", "preferredTerm": "C-Terminal Fibroblast Growth Factor 23 Measurement", "submissionValue": "Fibroblast Growth Factor 23, C-Terminal", "synonyms": ["Fibroblast Growth Factor 23, C-Terminal"]}, {"conceptId": "C135420", "definition": "A measurement of the intact fibroblast growth factor 23 in a biological specimen.", "preferredTerm": "Intact Fibroblast Growth Factor 23 Measurement", "submissionValue": "Fibroblast Growth Factor 23, Intact", "synonyms": ["Fibroblast Growth Factor 23, Intact"]}, {"conceptId": "C130162", "definition": "A measurement of the fibroblast growth factor 9 in a biological specimen.", "preferredTerm": "Fibroblast Growth Factor 9 Measurement", "submissionValue": "Fibroblast Growth Factor 9", "synonyms": ["FGF 9", "Fibroblast Growth Factor 9"]}, {"conceptId": "C82014", "definition": "A measurement of the basic form of fibroblast growth factor in a biological specimen.", "preferredTerm": "Fibroblast Growth Factor Basic Form Measurement", "submissionValue": "Fibroblast Growth Factor Basic Form", "synonyms": ["FGF2", "Fibroblast Growth Factor Basic Form"]}, {"conceptId": "C92786", "definition": "A measurement of the fetal isoform of fibronectin in a biological specimen", "preferredTerm": "Fetal Fibronectin Test", "submissionValue": "Fibronectin, Fetal", "synonyms": ["Fibronectin, Fetal"]}, {"conceptId": "C135421", "definition": "A measurement of the flagellates (protozoans that possess flagella) in a biological specimen.", "preferredTerm": "Flagellates Measurement", "submissionValue": "Flagellates", "synonyms": ["Flagellates"]}, {"conceptId": "C139081", "definition": "A measurement of the flunitrazepam present in a biological specimen.", "preferredTerm": "Flunitrazepam Measurement", "submissionValue": "Flunitrazepam", "synonyms": ["Flunitrazepam"]}, {"conceptId": "C122120", "definition": "A measurement of the fluoride in a biological specimen.", "preferredTerm": "Fluoride Measurement", "submissionValue": "Fluoride", "synonyms": ["Fluoride"]}, {"conceptId": "C75373", "definition": "A measurement of the flurazepam present in a biological specimen.", "preferredTerm": "Flurazepam Measurement", "submissionValue": "Flurazepam", "synonyms": ["Flurazepam"]}, {"conceptId": "C147340", "definition": "A measurement of the fluvoxamine present in a biological specimen.", "preferredTerm": "Fluvoxamine Measurement", "submissionValue": "Fluvoxamine", "synonyms": ["Fluvoxamine"]}, {"conceptId": "C132367", "definition": "A measurement of the folate hydrolase mRNA in a biological specimen.", "preferredTerm": "Folate Hydrolase mRNA Measurement", "submissionValue": "Folate Hydrolase mRNA", "synonyms": ["Folate Hydrolase mRNA"]}, {"conceptId": "C74783", "definition": "A measurement of the follicle stimulating hormone (FSH) in a biological specimen.", "preferredTerm": "Follicle Stimulating Hormone Measurement", "submissionValue": "Follicle Stimulating Hormone", "synonyms": ["Follicle Stimulating Hormone"]}, {"conceptId": "C114219", "definition": "A measurement of the fractional excretion of calcium that is computed based upon the concentrations of calcium and creatinine in both blood and urine.", "preferredTerm": "Fractional Excretion of Calcium", "submissionValue": "Fractional Calcium Excretion", "synonyms": ["Fractional Calcium Excretion"]}, {"conceptId": "C114220", "definition": "A measurement of the fractional excretion of chloride that is computed based upon the concentrations of chloride and creatinine in both blood and urine.", "preferredTerm": "Fractional Excretion of Chloride", "submissionValue": "Fractional Chloride Excretion", "synonyms": ["Fractional Chloride Excretion"]}, {"conceptId": "C122119", "definition": "A measurement of the fractional excretion of magnesium that is computed based upon the concentrations of magnesium and creatinine in both blood and urine.", "preferredTerm": "Fractional Excretion of Magnesium", "submissionValue": "Fractional Magnesium Excretion", "synonyms": ["Fractional Magnesium Excretion"]}, {"conceptId": "C114221", "definition": "A measurement of the fractional excretion of phosphorus that is computed based upon the concentrations of phosphorus and creatinine in both blood and urine.", "preferredTerm": "Fractional Excretion of Phosphate", "submissionValue": "Fractional Phosphorus Excretion", "synonyms": ["Fractional Inorganic Phosphate Excretion", "Fractional Phosphorus Excretion"]}, {"conceptId": "C114222", "definition": "A measurement of the fractional excretion of potassium that is computed based upon the concentrations of potassium and creatinine in both blood and urine.", "preferredTerm": "Fractional Excretion of Potassium", "submissionValue": "Fractional Potassium Excretion", "synonyms": ["Fractional Potassium Excretion"]}, {"conceptId": "C107435", "definition": "A measurement of the fractional excretion of sodium that is computed based upon the concentrations of sodium and creatinine in both blood and urine.", "preferredTerm": "Fractional Excretion of Sodium", "submissionValue": "Fractional Sodium Excretion", "synonyms": ["Fractional Sodium Excretion"]}, {"conceptId": "C124341", "definition": "A measurement of the androgen status in a biological specimen. This is calculated by a mathematical formula that takes into account the total testosterone level, sex hormone binding globulin, and a constant.", "preferredTerm": "Free Androgen Index", "submissionValue": "Free Androgen Index", "synonyms": ["Free Androgen Index"]}, {"conceptId": "C80200", "definition": "A measurement of the total non-esterified fatty acids in a biological specimen.", "preferredTerm": "Non-esterified Fatty Acids Measurement", "submissionValue": "Free Fatty Acid", "synonyms": ["Free Fatty Acid", "Non-Esterified Fatty Acid, Free"]}, {"conceptId": "C80206", "definition": "A measurement of the saturated non-esterified fatty acids in a biological specimen.", "preferredTerm": "Saturated Non-esterified Fatty Acids Measurement", "submissionValue": "Free Fatty Acid, Saturated", "synonyms": ["Free Fatty Acid, Saturated", "Non-esterified Fatty Acid, Saturated"]}, {"conceptId": "C80209", "definition": "A measurement of the unsaturated non-esterified fatty acids in a biological specimen.", "preferredTerm": "Unsaturated Non-esterified Fatty Acids Measurement", "submissionValue": "Free Fatty Acid, Unsaturated", "synonyms": ["Free Fatty Acid, Unsaturated", "Non-esterified Fatty Acid, Unsaturated"]}, {"conceptId": "C100448", "definition": "A measurement of the amount of unbound glycerol in a biological specimen.", "preferredTerm": "Free Glycerol Measurement", "submissionValue": "Free Glycerol", "synonyms": ["Free Glycerin", "Free Glycerol"]}, {"conceptId": "C74678", "definition": "A measurement of the fructosamine in a biological specimen.", "preferredTerm": "Fructosamine Measurement", "submissionValue": "Fructosamine", "synonyms": ["Fructosamine", "Glycated Serum Protein"]}, {"conceptId": "C147342", "definition": "A measurement of the fructose in a biological specimen.", "preferredTerm": "Fructose Measurement", "submissionValue": "Fructose", "synonyms": ["Fructose"]}, {"conceptId": "C147343", "definition": "A measurement of the filamentous fungi in a biological specimen.", "preferredTerm": "Filamentous Fungi Count", "submissionValue": "Fungi, Filamentous", "synonyms": ["Fungi, Filamentous"]}, {"conceptId": "C147344", "definition": "A measurement of the yeast-like fungi in a biological specimen.", "preferredTerm": "Yeast-Like Fungi Count", "submissionValue": "Fungi, Yeast-Like", "synonyms": ["Fungi, Yeast-Like"]}, {"conceptId": "C132368", "definition": "A measurement of the glucose-6-phosphate dehydrogenase deficient erythrocytes in a biological specimen.", "preferredTerm": "G6PD-Deficient Erythrocytes Count", "submissionValue": "G6PD-Deficient Erythrocytes", "synonyms": ["G6PD-Deficient Erythrocytes"]}, {"conceptId": "C132369", "definition": "A relative measurement (ratio or percentage) of G6PD-deficient erythrocytes to total erythrocytes in a biological specimen.", "preferredTerm": "G6PD-Deficient Erythrocytes to Erythrocytes Ratio Measurement", "submissionValue": "G6PD-Deficient Erythrocytes/Erythrocytes", "synonyms": ["G6PD-Deficient Erythrocytes/Erythrocytes"]}, {"conceptId": "C100450", "definition": "A measurement of the glomerular filtration rate (GFR) based on the clearance of beta-2 microglobulin after adjusting it for the body surface area.", "preferredTerm": "Glomerular Filtration Rate from B-2 Microglobulin Adjusted for BSA Measurement", "submissionValue": "GFR from B-2 Microglobulin Adj for BSA", "synonyms": ["GFR from B-2 Microglobulin Adj for BSA"]}, {"conceptId": "C100449", "definition": "A measurement of the glomerular filtration rate (GFR) based on the clearance of beta-trace protein after adjusting it for the body surface area.", "preferredTerm": "Glomerular Filtration Rate from Beta-Trace Protein Adjusted for BSA Measurement", "submissionValue": "GFR from Beta-Trace Protein Adj for BSA", "synonyms": ["GFR from Beta-Trace Protein Adj for BSA"]}, {"conceptId": "C98735", "definition": "An estimation of the glomerular filtration rate adjusted for body surface area based on creatinine.", "preferredTerm": "Glomerular Filtration Rate from Creatinine Adjusted for BSA", "submissionValue": "GFR from Creatinine Adjusted for BSA", "synonyms": ["GFR from Creatinine Adjusted for BSA"]}, {"conceptId": "C98736", "definition": "An estimation of the glomerular filtration rate adjusted for body surface area based on cystatin C.", "preferredTerm": "Glomerular Filtration Rate from Cystatin C Adjusted for BSA", "submissionValue": "GFR from Cystatin C Adjusted for BSA", "synonyms": ["GFR from Cystatin C Adjusted for BSA"]}, {"conceptId": "C127614", "definition": "An estimation of the glomerular filtration rate adjusted for body surface area based on cystatin C and creatinine.", "preferredTerm": "Glomeluar Filtration Rate from Cystatin C and Creatinine Adjusted for BSA", "submissionValue": "GFR from Cystatin C and Creat Adj BSA", "synonyms": ["GFR from Cystatin C and Creat Adj BSA"]}, {"conceptId": "C124342", "definition": "A liver function test that measures galactose elimination capacity in a biological specimen.", "preferredTerm": "Galactose Elimination Capacity", "submissionValue": "Galactose Elimination Capacity", "synonyms": ["Galactose Elimination Capacity"]}, {"conceptId": "C80182", "definition": "A measurement of the galanin in a biological specimen.", "preferredTerm": "Galanin Measurement", "submissionValue": "Galanin", "synonyms": ["Galanin"]}, {"conceptId": "C92257", "definition": "A measurement of the proteins contributing to the gamma fraction in a biological specimen.", "preferredTerm": "Gamma Globulin Measurement", "submissionValue": "Gamma Globulin", "synonyms": ["Gamma Globulin"]}, {"conceptId": "C92295", "definition": "A relative measurement (ratio or percentage) of gamma fraction proteins to total proteins in a biological specimen.", "preferredTerm": "Gamma Globulin to Total Protein Ratio Measurement", "submissionValue": "Gamma Globulin/Total Protein", "synonyms": ["Gamma Globulin/Total Protein"]}, {"conceptId": "C64847", "definition": "A measurement of the gamma glutamyl transferase in a biological specimen.", "preferredTerm": "Gamma Glutamyl Transpeptidase Measurement", "submissionValue": "Gamma Glutamyl Transferase", "synonyms": ["Gamma Glutamyl Transferase"]}, {"conceptId": "C79446", "definition": "A relative measurement (ratio or percentage) of the gamma glutamyl transferase to creatinine in a biological specimen.", "preferredTerm": "Gamma Glutamyl Transferase to Creatinine Ratio Measurement", "submissionValue": "Gamma Glutamyl Transferase/Creatinine", "synonyms": ["Gamma Glutamyl Transferase/Creatinine"]}, {"conceptId": "C116211", "definition": "A measurement of the gamma tocopherol in a biological specimen.", "preferredTerm": "Gamma Tocopherol Measurement", "submissionValue": "Gamma Tocopherol", "synonyms": ["Gamma Tocopherol"]}, {"conceptId": "C74858", "definition": "A measurement of the gastrin hormone in a biological specimen.", "preferredTerm": "Gastrin Measurement", "submissionValue": "Gastrin", "synonyms": ["Gastrin"]}, {"conceptId": "C130141", "definition": "A measurement of the Blattella germanica antigen IgA antibody in a biological specimen.", "preferredTerm": "German Cockroach Antigen IgA Antibody Measurement", "submissionValue": "German Cockroach Antigen IgA Antibody", "synonyms": ["German Cockroach Antigen IgA Antibody"]}, {"conceptId": "C130140", "definition": "A measurement of the Blattella germanica antigen IgE antibody in a biological specimen.", "preferredTerm": "German Cockroach Antigen IgE Antibody Measurement", "submissionValue": "German Cockroach Antigen IgE Antibody", "synonyms": ["German Cockroach Antigen IgE Antibody"]}, {"conceptId": "C130142", "definition": "A measurement of the Blattella germanica antigen IgG antibody in a biological specimen.", "preferredTerm": "German Cockroach Antigen IgG Antibody Measurement", "submissionValue": "German Cockroach Antigen IgG Antibody", "synonyms": ["German Cockroach Antigen IgG Antibody"]}, {"conceptId": "C130143", "definition": "A measurement of the Blattella germanica antigen IgG4 antibody in a biological specimen.", "preferredTerm": "German Cockroach Antigen IgG4 Antibody Measurement", "submissionValue": "German Cockroach Antigen IgG4 Antibody", "synonyms": ["German Cockroach Antigen IgG4 Antibody"]}, {"conceptId": "C112286", "definition": "A measurement of total ghrelin in a biological specimen.", "preferredTerm": "Ghrelin Measurement", "submissionValue": "Ghrelin", "synonyms": ["Ghrelin", "Growth Hormone Secretagogue Receptor Ligand", "Motilin-related Peptide", "Total Ghrelin"]}, {"conceptId": "C96651", "definition": "A measurement of the giant neutrophils in a biological specimen.", "preferredTerm": "Giant Neutrophil Count", "submissionValue": "Giant Neutrophils", "synonyms": ["Giant Neutrophils"]}, {"conceptId": "C74728", "definition": "A measurement of the giant (larger than 7um in diameter) platelets in a biological specimen.", "preferredTerm": "Giant Platelet Count", "submissionValue": "Giant Platelets", "synonyms": ["Giant Platelets"]}, {"conceptId": "C147347", "definition": "A measurement of the total gliadin antibodies in a biological specimen.", "preferredTerm": "Gliadin Antibody Measurement", "submissionValue": "Gliadin Antibody", "synonyms": ["Gliadin Antibody"]}, {"conceptId": "C147348", "definition": "A measurement of the gliadin IgA antibody in a biological specimen.", "preferredTerm": "Gliadin IgA Antibody Measurement", "submissionValue": "Gliadin IgA Antibody", "synonyms": ["Gliadin IgA Antibody"]}, {"conceptId": "C147349", "definition": "A measurement of the gliadin IgG antibody in a biological specimen.", "preferredTerm": "Gliadin IgG Antibody Measurement", "submissionValue": "Gliadin IgG Antibody", "synonyms": ["Gliadin IgG Antibody"]}, {"conceptId": "C74738", "definition": "A measurement of the globulin protein in a biological specimen.", "preferredTerm": "Globulin Protein Measurement", "submissionValue": "Globulin", "synonyms": ["Globulin"]}, {"conceptId": "C142276", "definition": "A relative measurement (ratio or percentage) of the globulin to creatinine in a biological specimen.", "preferredTerm": "Globulin to Creatinine Ratio Measurement", "submissionValue": "Globulin/Creatinine", "synonyms": ["Globulin/Creatinine"]}, {"conceptId": "C90505", "definition": "A kidney function test that measures the fluid volume that is filtered from the kidney glomeruli to the Bowman's capsule per unit of time.", "preferredTerm": "Glomerular Filtration Rate", "submissionValue": "Glomerular Filtration Rate", "synonyms": ["Glomerular Filtration Rate"]}, {"conceptId": "C98734", "definition": "A measurement of the glomerular filtration rate adjusted for body surface area.", "preferredTerm": "Glomerular Filtration Rate Adjusted for BSA", "submissionValue": "Glomerular Filtration Rate Adj for BSA", "synonyms": ["Glomerular Filtration Rate Adj for BSA"]}, {"conceptId": "C110935", "definition": "A kidney function test that estimates the fluid volume that is filtered from the kidney glomeruli to the Bowman's capsule per unit of time.", "preferredTerm": "Estimated Glomerular Filtration Rate", "submissionValue": "Glomerular Filtration Rate, Estimated", "synonyms": ["Glomerular Filtration Rate, Estimated"]}, {"conceptId": "C74859", "definition": "A measurement of the glucagon hormone in a biological specimen.", "preferredTerm": "Glucagon Measurement", "submissionValue": "Glucagon", "synonyms": ["Glucagon"]}, {"conceptId": "C80183", "definition": "A measurement of the total glucagon-like peptide-1 in a biological specimen.", "preferredTerm": "Glucagon-like Peptide-1 Measurement", "submissionValue": "Glucagon-Like Peptide-1", "synonyms": ["Glucagon-Like Peptide-1", "Total Glucagon-Like Peptide-1"]}, {"conceptId": "C80164", "definition": "A measurement of the active form of glucagon-like peptide-1 in a biological specimen.", "preferredTerm": "Active Glucagon-like Peptide-1 Measurement", "submissionValue": "Glucagon-Like Peptide-1, Active Form", "synonyms": ["Glucagon-Like Peptide-1, Active Form"]}, {"conceptId": "C105585", "definition": "A measurement of the glucose in a biological specimen.", "preferredTerm": "Glucose Measurement", "submissionValue": "Glucose", "synonyms": ["Glucose"]}, {"conceptId": "C96652", "definition": "A measurement of the volume of serum or plasma that would be cleared of glucose by excretion of urine for a specified unit of time (e.g. one minute).", "preferredTerm": "Glucose Clearance Measurement", "submissionValue": "Glucose Clearance", "synonyms": ["Glucose Clearance"]}, {"conceptId": "C117834", "definition": "A measurement of the amount of glucose being excreted in urine over a defined amount of time (e.g. one hour).", "preferredTerm": "Glucose Urine Excretion Rate", "submissionValue": "Glucose Excretion Rate", "synonyms": ["Glucose Excretion Rate"]}, {"conceptId": "C147350", "definition": "An estimated average of the glucose in a biological specimen. This estimate is calculated based on glycated hemoglobin concentrations.", "preferredTerm": "Estimated Glucose Measurement", "submissionValue": "Glucose, Estimated", "synonyms": ["EAG", "Estimated Average Glucose", "Glucose, Estimated"]}, {"conceptId": "C142275", "definition": "A computed estimate of the blood glucose based on the value of the glycated hemoglobin", "preferredTerm": "Estimated Average Glucose", "submissionValue": "Glucose, Estimated Average", "synonyms": ["Glucose, Estimated Average"]}, {"conceptId": "C80184", "definition": "A measurement of the glucose-6-phosphate dehydrogenase in a biological specimen.", "preferredTerm": "Glucose-6-Phosphate Dehydrogenase Measurement", "submissionValue": "Glucose-6-Phosphate Dehydrogenase", "synonyms": ["Glucose-6-Phosphate Dehydrogenase"]}, {"conceptId": "C139065", "definition": "A measurement of the biological activity of glucose-6-phosphate dehydrogenase in a biological specimen.", "preferredTerm": "Glucose-6-Phosphate Dehydrogenase Activity", "submissionValue": "Glucose-6-Phosphate Dehydrogenase Act", "synonyms": ["Glucose-6-Phosphate Dehydrogenase Act"]}, {"conceptId": "C106537", "definition": "A measurement of the intact (containing amino acids 1-42) glucose-dependent insulinotropic peptide in a biological specimen.", "preferredTerm": "Intact Glucose-dependent Insulinotropic Peptide Measurement", "submissionValue": "Glucose-dep Insulinotropic Pep, Intact", "synonyms": ["Glucose-dep Insulinotropic Pep, Intact", "Intact GIP", "Intact Gastric Inhibitory Polypeptide", "Intact Glucose-dependent Insulinotropic Peptide"]}, {"conceptId": "C79447", "definition": "A relative measurement (ratio or percentage) of the glucose to creatinine in a biological specimen.", "preferredTerm": "Glucose to Creatinine Ratio Measurement", "submissionValue": "Glucose/Creatinine", "synonyms": ["Glucose/Creatinine"]}, {"conceptId": "C80165", "definition": "A measurement of the alpha glucuronidase in a biological specimen.", "preferredTerm": "Alpha Glucuronidase Measurement", "submissionValue": "Glucuronidase, Alpha", "synonyms": ["Glucuronidase, Alpha"]}, {"conceptId": "C80170", "definition": "A measurement of the beta glucuronidase in a biological specimen.", "preferredTerm": "Beta Glucuronidase Measurement", "submissionValue": "Glucuronidase, Beta", "synonyms": ["Glucuronidase, Beta"]}, {"conceptId": "C74739", "definition": "A measurement of the glutamate in a biological specimen.", "preferredTerm": "Glutamate Measurement", "submissionValue": "Glutamate", "