{"_links": {"parentPackage": {"href": "/mdr/ct/packages/sendct-2018-03-30", "title": "SEND Controlled Terminology Package 33 Effective 2018-03-30", "type": "Terminology"}, "priorVersion": {"href": "/mdr/ct/packages/sendct-2017-12-22/codelists/C71113", "title": "CDISC SDTM Frequency Terminology", "type": "Code List"}, "rootItem": {"href": "/mdr/root/ct/sendct/codelists/C71113", "title": "Version-agnostic anchor resource for codelist C71113", "type": "Root Value Domain"}, "self": {"href": "/mdr/ct/packages/sendct-2018-03-30/codelists/C71113", "title": "CDISC SDTM Frequency Terminology", "type": "Code List"}}, "conceptId": "C71113", "definition": "The terminology that includes terms pertaining to frequency within CDISC.", "extensible": "true", "name": "Frequency", "preferredTerm": "CDISC SDTM Frequency Terminology", "submissionValue": "FREQ", "synonyms": ["Frequency"], "terms": [{"conceptId": "C64526", "definition": "One time per week. (NCI)", "preferredTerm": "Once Weekly", "submissionValue": "1 TIME PER WEEK", "synonyms": ["One Time Per Week"]}, {"conceptId": "C139179", "definition": "Ten days per month. (NCI)", "preferredTerm": "Ten Days Per Month", "submissionValue": "10 DAYS PER MONTH", "synonyms": ["10 Days Monthly"]}, {"conceptId": "C64497", "definition": "Two times per week. (NCI)", "preferredTerm": "Twice Weekly", "submissionValue": "2 TIMES PER WEEK", "synonyms": ["BIS", "Twice per week"]}, {"conceptId": "C98861", "definition": "Two times per year. (NCI)", "preferredTerm": "Two Times Yearly", "submissionValue": "2 TIMES PER YEAR", "synonyms": ["2 Times Per Year"]}, {"conceptId": "C98859", "definition": "Three times per month. (NCI)", "preferredTerm": "Three Times Monthly", "submissionValue": "3 TIMES PER MONTH", "synonyms": ["3 Times Per Month"]}, {"conceptId": "C64528", "definition": "Three times per week. (NCI)", "preferredTerm": "Three Times Weekly", "submissionValue": "3 TIMES PER WEEK", "synonyms": ["TIS", "Three times a week"]}, {"conceptId": "C98860", "definition": "Three times per year. (NCI)", "preferredTerm": "Three Times Yearly", "submissionValue": "3 TIMES PER YEAR", "synonyms": ["3 Times Per Year"]}, {"conceptId": "C98852", "definition": "Four times per month. (NCI)", "preferredTerm": "Four Times Monthly", "submissionValue": "4 TIMES PER MONTH", "synonyms": ["4 Times Per Month"]}, {"conceptId": "C64531", "definition": "Four times per week. (NCI)", "preferredTerm": "Four Times Weekly", "submissionValue": "4 TIMES PER WEEK", "synonyms": ["4 times per week", "QIS"]}, {"conceptId": "C98853", "definition": "Four times per year. (NCI)", "preferredTerm": "Four Times Yearly", "submissionValue": "4 TIMES PER YEAR", "synonyms": ["4 Times Per Year"]}, {"conceptId": "C98849", "definition": "Five times per day. (NCI)", "preferredTerm": "Five Times Daily", "submissionValue": "5 TIMES PER DAY", "synonyms": ["5 Times Daily"]}, {"conceptId": "C98850", "definition": "Five times per month. (NCI)", "preferredTerm": "Five Times Monthly", "submissionValue": "5 TIMES PER MONTH", "synonyms": ["5 Times Per Month"]}, {"conceptId": "C85552", "definition": "Five times per week. (NCI)", "preferredTerm": "Five Times Weekly", "submissionValue": "5 TIMES PER WEEK", "synonyms": ["5 Times Per Week"]}, {"conceptId": "C98851", "definition": "Five times per year. (NCI)", "preferredTerm": "Five Times Yearly", "submissionValue": "5 TIMES PER YEAR", "synonyms": ["5 Times Per Year"]}, {"conceptId": "C98855", "definition": "Six times per day. (NCI)", "preferredTerm": "Six Times Daily", "submissionValue": "6 TIMES PER DAY", "synonyms": ["6 Times Daily"]}, {"conceptId": "C98856", "definition": "Six times per month. (NCI)", "preferredTerm": "Six Times Monthly", "submissionValue": "6 TIMES PER MONTH", "synonyms": ["6 Times Per Month"]}, {"conceptId": "C98857", "definition": "Six times per week. (NCI)", "preferredTerm": "Six Times Weekly", "submissionValue": "6 TIMES PER WEEK", "synonyms": ["6 Times Per Week"]}, {"conceptId": "C98858", "definition": "Six times per year. (NCI)", "preferredTerm": "Six Times Yearly", "submissionValue": "6 TIMES PER YEAR", "synonyms": ["6 Times Per Year"]}, {"conceptId": "C139180", "definition": "Seven times per day. (NCI)", "preferredTerm": "Seven Times Per Day", "submissionValue": "7 TIMES PER DAY", "synonyms": ["7 Times Daily"]}, {"conceptId": "C98854", "definition": "Seven times per week. (NCI)", "preferredTerm": "Seven Times Weekly", "submissionValue": "7 TIMES PER WEEK", "synonyms": ["7 Times Per Week"]}, {"conceptId": "C139181", "definition": "Eight times per day. (NCI)", "preferredTerm": "Eight Times Per Day", "submissionValue": "8 TIMES PER DAY", "synonyms": ["8 Times Daily"]}, {"conceptId": "C139182", "definition": "Nine times per day. (NCI)", "preferredTerm": "Nine Times Per Day", "submissionValue": "9 TIMES PER DAY", "synonyms": ["9 Times Daily"]}, {"conceptId": "C64636", "definition": "As much as desired.", "preferredTerm": "As Much as Desired", "submissionValue": "AD LIBITUM", "synonyms": ["Ad Libitum"]}, {"conceptId": "C64496", "definition": "Two times per day, at unspecified times. (NCI)", "preferredTerm": "Twice Daily", "submissionValue": "BID", "synonyms": ["BD", "Twice per day"]}, {"conceptId": "C71129", "definition": "Twice per month. (NCI)", "preferredTerm": "Twice Per Month", "submissionValue": "BIM", "synonyms": ["Twice per month"]}, {"conceptId": "C53279", "definition": "Remain in force or carry on without letup; keep or maintain in unaltered condition; exist in time or space without stop or interruption. (NCI)", "preferredTerm": "Continue", "submissionValue": "CONTINUOUS", "synonyms": ["Continuous"]}, {"conceptId": "C71127", "definition": "Every two weeks. (NCI)", "preferredTerm": "Every Two Weeks", "submissionValue": "EVERY 2 WEEKS", "synonyms": ["Every 2 weeks", "Q2S"]}, {"conceptId": "C64535", "definition": "Every three weeks. (NCI)", "preferredTerm": "Every Three Weeks", "submissionValue": "EVERY 3 WEEKS", "synonyms": ["Every 3 weeks", "Q3S"]}, {"conceptId": "C64529", "definition": "Every four weeks. (NCI)", "preferredTerm": "Every Four Weeks", "submissionValue": "EVERY 4 WEEKS", "synonyms": ["Every 4 weeks", "Q4S"]}, {"conceptId": "C103390", "definition": "Every five weeks. (NCI)", "preferredTerm": "Every Five Weeks", "submissionValue": "EVERY 5 WEEKS", "synonyms": ["Every 5 weeks", "Q5S"]}, {"conceptId": "C89788", "definition": "Every six weeks. (NCI)", "preferredTerm": "Every Six Weeks", "submissionValue": "EVERY 6 WEEKS", "synonyms": ["Every 6 Weeks", "Q6S"]}, {"conceptId": "C116149", "definition": "Every seven weeks.", "preferredTerm": "Every Seven Weeks", "submissionValue": "EVERY 7 WEEKS", "synonyms": ["Every 7 weeks", "Q7S"]}, {"conceptId": "C103389", "definition": "Every eight weeks. (NCI)", "preferredTerm": "Every Eight Weeks", "submissionValue": "EVERY 8 WEEKS", "synonyms": ["Every 8 weeks", "Q8S"]}, {"conceptId": "C67069", "definition": "Every week. (NCI)", "preferredTerm": "Weekly", "submissionValue": "EVERY WEEK", "synonyms": ["Every week", "Per Week", "QS"]}, {"conceptId": "C71325", "definition": "Periodically stopping and starting. (NCI)", "preferredTerm": "Intermittent", "submissionValue": "INTERMITTENT", "synonyms": ["Intermittent"]}, {"conceptId": "C64954", "definition": "Not occurring regularly or at short intervals.", "preferredTerm": "Infrequent", "submissionValue": "OCCASIONAL", "synonyms": ["Occasional"]}, {"conceptId": "C64576", "definition": "One time.", "preferredTerm": "Once", "submissionValue": "ONCE"}, {"conceptId": "C74924", "definition": "A frequency rate of occurrences of something within a period of time equal to three hundred sixty-five days.", "preferredTerm": "Per Year", "submissionValue": "PA", "synonyms": ["/Year", "Every Year", "Per Annum", "Per Year"]}, {"conceptId": "C64499", "definition": "As needed. (NCI)", "preferredTerm": "As Necessary", "submissionValue": "PRN", "synonyms": ["As needed"]}, {"conceptId": "C64500", "definition": "Every ten hours. (NCI)", "preferredTerm": "Every Ten Hours", "submissionValue": "Q10H", "synonyms": ["Every 10 hours"]}, {"conceptId": "C64501", "definition": "Every eleven hours. (NCI)", "preferredTerm": "Every Eleven Hours", "submissionValue": "Q11H", "synonyms": ["Every 11 hours"]}, {"conceptId": "C64502", "definition": "Every twelve hours. (NCI)", "preferredTerm": "Every Twelve Hours", "submissionValue": "Q12H", "synonyms": ["Every 12 hours"]}, {"conceptId": "C64503", "definition": "Every thirteen hours. (NCI)", "preferredTerm": "Every Thirteen Hours", "submissionValue": "Q13H", "synonyms": ["Every 13 hours"]}, {"conceptId": "C64504", "definition": "Every fourteen hours. (NCI)", "preferredTerm": "Every Fourteen Hours", "submissionValue": "Q14H", "synonyms": ["Every 14 hours"]}, {"conceptId": "C64505", "definition": "Every fifteen hours. (NCI)", "preferredTerm": "Every Fifteen Hours", "submissionValue": "Q15H", "synonyms": ["Every 15 hours"]}, {"conceptId": "C64506", "definition": "Every sixteen hours. (NCI)", "preferredTerm": "Every Sixteen Hours", "submissionValue": "Q16H", "synonyms": ["Every 16 hours"]}, {"conceptId": "C64507", "definition": "Every seventeen hours. (NCI)", "preferredTerm": "Every Seventeen Hours", "submissionValue": "Q17H", "synonyms": ["Every 17 hours"]}, {"conceptId": "C64508", "definition": "Every eighteen hours. (NCI)", "preferredTerm": "Every Eighteen Hours", "submissionValue": "Q18H", "synonyms": ["Every 18 hours"]}, {"conceptId": "C64509", "definition": "Every nineteen hours. (NCI)", "preferredTerm": "Every Nineteen Hours", "submissionValue": "Q19H", "synonyms": ["Every 19 hours"]}, {"conceptId": "C64511", "definition": "Every twenty hours. (NCI)", "preferredTerm": "Every Twenty Hours", "submissionValue": "Q20H", "synonyms": ["Every 20 hours"]}, {"conceptId": "C64512", "definition": "Every twenty-one hours. (NCI)", "preferredTerm": "Every Twenty-One Hours", "submissionValue": "Q21H", "synonyms": ["Every 21 hours"]}, {"conceptId": "C64513", "definition": "Every twenty-two hours. (NCI)", "preferredTerm": "Every Twenty-Two Hours", "submissionValue": "Q22H", "synonyms": ["Every 22 hours"]}, {"conceptId": "C64514", "definition": "Every twenty-three hours. (NCI)", "preferredTerm": "Every Twenty-Three Hours", "submissionValue": "Q23H", "synonyms": ["Every 23 hours"]}, {"conceptId": "C64515", "definition": "Every twenty-four hours. (NCI)", "preferredTerm": "Every Twenty-Four Hours", "submissionValue": "Q24H", "synonyms": ["Every 24 hours"]}, {"conceptId": "C64516", "definition": "Every two hours. (NCI)", "preferredTerm": "Every Two Hours", "submissionValue": "Q2H", "synonyms": ["Every 2 hours"]}, {"conceptId": "C64536", "definition": "Every two months. (NCI)", "preferredTerm": "Every Two Months", "submissionValue": "Q2M", "synonyms": ["Every two months"]}, {"conceptId": "C89791", "definition": "Every thirty-six hours. (NCI)", "preferredTerm": "Every Thirty-six Hours", "submissionValue": "Q36H", "synonyms": ["Every 36 Hours"]}, {"conceptId": "C64533", "definition": "Every three days. (NCI)", "preferredTerm": "Every Three Days", "submissionValue": "Q3D", "synonyms": ["Every 3 days"]}, {"conceptId": "C64517", "definition": "Every three hours. (NCI)", "preferredTerm": "Every Three Hours", "submissionValue": "Q3H", "synonyms": ["Every 3 hours"]}, {"conceptId": "C64537", "definition": "Every three months. (NCI)", "preferredTerm": "Every Three Months", "submissionValue": "Q3M", "synonyms": ["Every 3 months"]}, {"conceptId": "C139183", "definition": "Every forty-five minutes. (NCI)", "preferredTerm": "Every Forty-Five Minutes", "submissionValue": "Q45MIN", "synonyms": ["Every 45 Minutes"]}, {"conceptId": "C89790", "definition": "Every forty-eight hours. (NCI)", "preferredTerm": "Every Forty-eight Hours", "submissionValue": "Q48H", "synonyms": ["Every 48 Hours"]}, {"conceptId": "C64534", "definition": "Every four days. (NCI)", "preferredTerm": "Every Four Days", "submissionValue": "Q4D", "synonyms": ["Every 4 days"]}, {"conceptId": "C64518", "definition": "Every four hours. (NCI)", "preferredTerm": "Every Four Hours", "submissionValue": "Q4H", "synonyms": ["Every 4 hours"]}, {"conceptId": "C64538", "definition": "Every four months. (NCI)", "preferredTerm": "Every Four Months", "submissionValue": "Q4M", "synonyms": ["Every 4 months"]}, {"conceptId": "C71124", "definition": "Every five days. (NCI)", "preferredTerm": "Every Five Days", "submissionValue": "Q5D", "synonyms": ["Every 5 days"]}, {"conceptId": "C64519", "definition": "Every five hours. (NCI)", "preferredTerm": "Every Five Hours", "submissionValue": "Q5H", "synonyms": ["Every 5 hours"]}, {"conceptId": "C64520", "definition": "Every six hours. (NCI)", "preferredTerm": "Every Six Hours", "submissionValue": "Q6H", "synonyms": ["Every 6 hours"]}, {"conceptId": "C89789", "definition": "Every six months. (NCI)", "preferredTerm": "Every Six Months", "submissionValue": "Q6M", "synonyms": ["Every 6 Months"]}, {"conceptId": "C139177", "definition": "Every seven days. (NCI)", "preferredTerm": "Every Seven Days", "submissionValue": "Q7D", "synonyms": ["Every 7 Days"]}, {"conceptId": "C64521", "definition": "Every seven hours. (NCI)", "preferredTerm": "Every Seven Hours", "submissionValue": "Q7H", "synonyms": ["Every 7 hours"]}, {"conceptId": "C64523", "definition": "Every eight hours. (NCI)", "preferredTerm": "Every Eight Hours", "submissionValue": "Q8H", "synonyms": ["Every 8 hours"]}, {"conceptId": "C64524", "definition": "Every nine hours. (NCI)", "preferredTerm": "Every Nine Hours", "submissionValue": "Q9H", "synonyms": ["Every 9 hours"]}, {"conceptId": "C64595", "definition": "Every morning. (NCI)", "preferredTerm": "Every Morning", "submissionValue": "QAM"}, {"conceptId": "C25473", "definition": "A rate of occurrences within a period of time equal to one day.", "preferredTerm": "Daily", "submissionValue": "QD", "synonyms": ["Daily"]}, {"conceptId": "C64510", "definition": "Every hour. (NCI)", "preferredTerm": "Every Hour", "submissionValue": "QH", "synonyms": ["Every hour"]}, {"conceptId": "C64530", "definition": "Four times per day. (NCI)", "preferredTerm": "Four Times Daily", "submissionValue": "QID", "synonyms": ["4 times per day"]}, {"conceptId": "C64498", "definition": "Every month. (NCI)", "preferredTerm": "Monthly", "submissionValue": "QM", "synonyms": ["Every Month", "Per Month"]}, {"conceptId": "C139178", "definition": "Every night.", "preferredTerm": "Every Night.", "submissionValue": "QN"}, {"conceptId": "C64525", "definition": "Every other day. (NCI)", "preferredTerm": "Every Other Day", "submissionValue": "QOD", "synonyms": ["Every other day"]}, {"conceptId": "C64596", "definition": "Every evening. (NCI)", "preferredTerm": "Every Evening", "submissionValue": "QPM"}, {"conceptId": "C64527", "definition": "Three times per day. (NCI)", "preferredTerm": "Three Times Daily", "submissionValue": "TID", "synonyms": ["3 times per day"]}, {"conceptId": "C65134", "definition": "Two times. (NCI)", "preferredTerm": "Twice", "submissionValue": "TWICE"}, {"conceptId": "C17998", "definition": "Not known, not observed, not recorded, or refused. (NCI)", "preferredTerm": "Unknown", "submissionValue": "UNKNOWN", "synonyms": ["U", "Unknown"]}]}