{"_links": {"parentPackage": {"href": "/mdr/ct/packages/coact-2015-03-27", "title": "COA Controlled Terminology Package 21 Effective 2015-03-27", "type": "Terminology"}, "priorVersion": {"href": "/mdr/ct/packages/coact-2014-12-19/codelists/C100153", "title": "CDISC Questionnaire FPSR Test Name Terminology", "type": "Code List"}, "rootItem": {"href": "/mdr/root/ct/coact/codelists/C100153", "title": "Version-agnostic anchor resource for codelist C100153", "type": "Root Value Domain"}, "self": {"href": "/mdr/ct/packages/coact-2015-03-27/codelists/C100153", "title": "CDISC Questionnaire FPSR Test Name Terminology", "type": "Code List"}}, "conceptId": "C100153", "definition": "Faces Pain Scale - Revised test name.", "extensible": "false", "name": "QS-Faces Pain Scale - Revised Test Name", "preferredTerm": "CDISC Questionnaire FPSR Test Name Terminology", "submissionValue": "FPSR TEST", "synonyms": ["QS-Faces Pain Scale - Revised Test Name"], "terms": [{"conceptId": "C101013", "definition": "Faces Pain Scale - Revised - Point to the face that shows how much you hurt [right now].", "preferredTerm": "FPSR - How Much do You Hurt", "submissionValue": "FPSR1-How Much do you Hurt", "synonyms": ["FPSR1-How Much do you Hurt"]}]}