{"_links": {"parentPackage": {"href": "/mdr/ct/packages/coact-2015-03-27", "title": "COA Controlled Terminology Package 21 Effective 2015-03-27", "type": "Terminology"}, "priorVersion": {"href": "/mdr/ct/packages/coact-2014-12-19/codelists/C100129", "title": "CDISC Questionnaire Category Terminology", "type": "Code List"}, "rootItem": {"href": "/mdr/root/ct/coact/codelists/C100129", "title": "Version-agnostic anchor resource for codelist C100129", "type": "Root Value Domain"}, "self": {"href": "/mdr/ct/packages/coact-2015-03-27/codelists/C100129", "title": "CDISC Questionnaire Category Terminology", "type": "Code List"}}, "conceptId": "C100129", "definition": "A grouping of observations within the Questionnaire domain.", "extensible": "true", "name": "Category of Questionnaire", "preferredTerm": "CDISC Questionnaire Category Terminology", "submissionValue": "QSCAT", "synonyms": ["Category of Questionnaire"], "terms": [{"conceptId": "C100762", "definition": "The CDISC version of the Alzheimer's Disease Assessment Scale-Cognitive (ADAS-Cog CDISC Version) containing 15 summary-level tests. This version is based on combining the total pool of ADAS-Cog tests that were observed during a review of multiple case report forms administered in clinical trials of Alzheimer's disease, as well as the CRF administered in the Alzheimer's Disease Neuroimaging Initiative (ADNI) observational study. (Modified from Mohs RC, Rosen WG, Davis KL. The Alzheimer's disease assessment scale: an instrument for assessing treatment efficacy. Psychopharmacol Bull 1983;19(3):448-450. Rosen WG, Mohs RC, Davis KL. A new rating scale for Alzheimer's disease. Am J Psychiatry 1984;141(11):1356-1364. Mohs RC, Knopman D, Petersen RC et al. Development of cognitive instruments for use in clinical trials of antidementia drugs: additions to the Alzheimer's Disease Assessment Scale that broaden its scope. The Alzheimer's Disease Cooperative Study. Alzheimer Dis Assoc Disord 1997;11 Suppl 2:S13-S21. Wouters H, van Gool WA, Schmand B, Lindeboom R. Revising the ADAS-cog for a more accurate assessment of cognitive impairment. Alzheimer Dis Assoc Disord 2008;22(3):236-244.).", "preferredTerm": "Alzheimer's Disease Assessment Scale-Cognitive CDISC Version Questionnaire", "submissionValue": "ADAS-COG", "synonyms": ["ADC"]}, {"conceptId": "C105166", "definition": "Alzheimer's Disease Cooperative Study-Activities of Daily Living Inventory (ADCS-ADL) (Galasko, D., Bennett, D., Sano, M., Ernesto, C., Thomas, R., Grundman, M., Ferris, S., and the ADCS. \"An Inventory to Assess Activities of Daily Living for Clinical Trials in Alzheimer's Disease.\" Alzheimer's Disease and Associated Disorders, 1997. Volume 11(2): S33-S39).", "preferredTerm": "Alzheimer's Disease Cooperative Study Activities of Daily Living Inventory Questionnaire", "submissionValue": "ADCS-ADL", "synonyms": ["ADL01"]}, {"conceptId": "C106888", "definition": "Alzheimer's Disease Cooperative Study-Activities of Daily Living Inventory (ADCS-ADL), MCI Version (Galasko, D., Bennett, D., Sano, M., Ernesto, C., Thomas, R., Grundman, M., Ferris, S., and the ADCS. An Inventory to Assess Activities of Daily Living for Clinical Trials in Alzheimer's Disease. Alzheimer's Disease and Associated Disorders, 1997. Volume 11(2): S33-S39).", "preferredTerm": "Alzheimer's Disease Cooperative Study-Activities of Daily Living Inventory Mild Cognitive Impairment Questionnaire", "submissionValue": "ADCS-ADL MCI", "synonyms": ["ADL03"]}, {"conceptId": "C106889", "definition": "Alzheimer's Disease Cooperative Study-Activities of Daily Living Inventory (ADCS-ADL), Severe Dementia Version (Galasko, D., Bennett, D., Sano, M., Ernesto, C., Thomas, R., Grundman, M., Ferris, S., and the ADCS. An Inventory to Assess Activities of Daily Living for Clinical Trials in Alzheimer's Disease. Alzheimer's Disease and Associated Disorders, 1997. Volume 11(2): S33-S39).", "preferredTerm": "Alzheimer's Disease Cooperative Study-Activities of Daily Living Inventory Severe Dementia Questionnaire", "submissionValue": "ADCS-ADL SEVERE", "synonyms": ["ADL02"]}, {"conceptId": "C103515", "definition": "Alzheimer's Disease Cooperative Study-Clinical Global Impression of Change (ADCS-CGIC) (Schneider LS, Olin JT, Doody RS, Clark CM, Morris JC, Reisberg B, Schmitt FA, Grundman M, Thomas RG, Ferris SH, and the Alzheimer's Disease Cooperative Study. Validity and Reliability of the Alzheimer's Disease Cooperative Study-Clinical Global Impression of Change. Alzheimer Disease and Associated Disorders. 1997; 11(2):S22-S32).", "preferredTerm": "Alzheimer's Disease Cooperative Study-Clinical Global Impression of Change Questionnaire", "submissionValue": "ADCS-CGIC", "synonyms": ["ACGC01"]}, {"conceptId": "C102111", "definition": "Abnormal Involuntary Movement Scale (AIMS) (Guy W. Ed. ECDEU Assessment Manual for Psychopharmacology. Rockville MD: US Dept of Health, Education and Welfare. 1976, Publication No. (ADM) 76-338).", "preferredTerm": "Abnormal Involuntary Movement Scale Questionnaire", "submissionValue": "AIMS", "synonyms": ["AIMS01"]}, {"conceptId": "C112518", "definition": "Airway Questionnaire 20 (AQ20) (Barley EA, Quirk FH, Jones PW. Asthma health status in clinical practice: validity of a new short and simple instrument. Respir Med 1998; 92:1207-14. Copyright Reserved P.W. Jones, PhD FRCP).", "preferredTerm": "Airway Questionnaire 20", "submissionValue": "AQ20", "synonyms": ["AQ01"]}, {"conceptId": "C119098", "definition": "Alcohol Use Disorder Identification Test-Consumption Questions (AUDIT-C) (Bush K, Kivlahan DR, McDonell MB, Fihn SD, Bradley KA; for the Ambulatory Care Quality Improvement Project (ACQUIP). The AUDIT Alcohol Consumption Questions (AUDIT-C) An Effective Brief Screening Test for Problem Drinking. Arch Intern Med. Sep 14 1998;158:1789-1795).", "preferredTerm": "Alcohol Use Disorder Identification Test Alcohol Consumption Questions Questionnaire", "submissionValue": "AUDIT-C", "synonyms": ["ADTC01"]}, {"conceptId": "C119097", "definition": "Alcohol Use Disorder Identification Test: Self-Report Version (AUDIT) (Saunders JB, Aasland, OG, Babor, TF, De La Fuente JR, Grant M. Development of the Alcohol Use Disorders Identification Test (AUDIT): WHO Collaborative Project on Early Detection of Persons with harmful Alcohol Consumption-II. Addiction (1993) 88:791-804).", "preferredTerm": "Alcohol Use Disorder Identification Test Self-Report Version Questionnaire", "submissionValue": "AUDIT-SR", "synonyms": ["ADT01"]}, {"conceptId": "C102112", "definition": "The Alzheimer's Disease Neuroimaging Initiative's (ADNI) version of the Auditory Verbal Learning Test (AVLT Version A) modified from Rey A. L'examen clinique en psychologie [Clinical tests in psychology]. Paris: Presses Universitaires de France; 1964.", "preferredTerm": "Alzheimer's Disease Neuroimaging Initiative Auditory Verbal Learning Test Questionnaire", "submissionValue": "AVLT", "synonyms": ["AVL01"]}, {"conceptId": "C102113", "definition": "Barnes Akathisia Rating Scale (BARS) (Barnes TR: A Rating Scale for Drug-Induced Akathisia. British Journal of Psychiatry 154:672-676, 1989).", "preferredTerm": "Barnes Akathisia Rating Scale Questionnaire", "submissionValue": "BARS", "synonyms": ["BARS01"]}, {"conceptId": "C106693", "definition": "Baseline Dyspnea Index (BDI) (Mahler DA, Weinberg DH, Wells CK, Feinstein AR. The measurement of dyspnea. Contents, interobserver agreement, and physiologic correlates of two new clinical indexes. Chest 1984, 85: 751-758).", "preferredTerm": "Baseline Dyspnea Index Questionnaire", "submissionValue": "BDI", "synonyms": ["BDI01"]}, {"conceptId": "C113874", "definition": "Bladder Control Scale (BLCS) (1997 by the National Multiple Sclerosis Society. All rights reserved).", "preferredTerm": "Bladder Control Scale Questionnaire", "submissionValue": "BLCS", "synonyms": ["BLCS01"]}, {"conceptId": "C113872", "definition": "Borg CR10 Scale (BORG CR10) (Borg CR10 Scale. Copyright Gunnar Borg, 1981, 1982, 1998).", "preferredTerm": "Borg Category-Ratio 10 Scale Questionnaire", "submissionValue": "BORG CR10", "synonyms": ["BCR101"]}, {"conceptId": "C100759", "definition": "Brief Pain Inventory (BPI) (copyright 1991 Charles S. Cleeland, PhD, Pain Research Group, All Right Reserved).", "preferredTerm": "Brief Pain Inventory Questionnaire", "submissionValue": "BPI", "synonyms": ["BPI1"]}, {"conceptId": "C100760", "definition": "Brief Pain Inventory Short Form (BPI2) (copyright 1991 Charles S. Cleeland, PhD, Pain Research Group, All Right Reserved).", "preferredTerm": "Brief Pain Inventory Short Form Questionnaire", "submissionValue": "BPI SHORT FORM", "synonyms": ["BPI2"]}, {"conceptId": "C100761", "definition": "Brief Psychiatric Rating Scale - Anchored (BPRS-A) (Woerner MB, Mannuzza S, and Kane JM. Anchoring the BPRS: An Aid to Improved Reliability. Psychopharmacology Bulletin 1988; 24(1):112-117).", "preferredTerm": "Brief Psychiatric Rating Scale A Questionnaire", "submissionValue": "BPRS-A", "synonyms": ["BPR01"]}, {"conceptId": "C113875", "definition": "Bowel Control Scale (BWCS) (1997 by the National Multiple Sclerosis Society. All rights reserved).", "preferredTerm": "Bowel Control Scale Questionnaire", "submissionValue": "BWCS", "synonyms": ["BWCS01"]}, {"conceptId": "C106695", "definition": "Columbia-Suicidality Severity Rating Scale (C-SSRS) Already Enrolled Subjects Version 1/14/2009 (Posner, K.; Brent, D.; Lucas, C.; Gould, M.; Stanley, B.; Brown, G.; Fisher, P.; Zelazny, J.; Burke, A.; Oquendo, M.; Mann, J.; copyright 2008 The Research Foundation for Mental Hygiene, Inc.).", "preferredTerm": "Columbia-Suicide Severity Rating Scale Already Enrolled Subjects Questionnaire", "submissionValue": "C-SSRS ALREADY ENROLLED SUBJECTS", "synonyms": ["CSS05"]}, {"conceptId": "C100765", "definition": "Columbia-Suicidality Severity Rating Scale (C-SSRS) Baseline Version 2009-01-14 (Posner, K.; Brent, D.; Lucas, C.; Gould, M.; Stanley, B.; Brown, G.; Fisher, P.; Zelazny, J.; Burke, A.; Oquendo, M.; Mann, J.; copyright 2008 The Research Foundation for Mental Hygiene, Inc.).", "preferredTerm": "Columbia-Suicidality Severity Rating Scale Baseline Questionnaire", "submissionValue": "C-SSRS BASELINE", "synonyms": ["CSS01"]}, {"conceptId": "C106696", "definition": "Columbia-Suicidality Severity Rating Scale (C-SSRS) Baseline/Screening Version 1/14/2009 (Posner, K.; Brent, D.; Lucas, C.; Gould, M.; Stanley, B.; Brown, G.; Fisher, P.; Zelazny, J.; Burke, A.; Oquendo, M.; Mann, J.; copyright 2008 The Research Foundation for Mental Hygiene, Inc.).", "preferredTerm": "Columbia-Suicide Severity Rating Scale Baseline/Screening Version Questionnaire", "submissionValue": "C-SSRS BASELINE/SCREENING VERSION", "synonyms": ["CSS04"]}, {"conceptId": "C105164", "definition": "Columbia-Suicidality Severity Rating Scale (C-SSRS) Baseline/Screening Version Phase 1 Study Version 1/14/2009 (Posner, K.; Brent, D.; Lucas, C.; Gould, M.; Stanley, B.; Brown, G.; Fisher, P.; Zelazny, J.; Burke, A.; Oquendo, M.; Mann, J.; copyright 2008 The Research Foundation for Mental Hygiene, Inc.).", "preferredTerm": "Columbia-Suicidality Severity Rating Scale Baseline/Screening Version Phase 1 Study 1/14/09 Questionnaire", "submissionValue": "C-SSRS BASELINE/SCREENING VERSION PHASE 1 STUDY", "synonyms": ["CSS03"]}, {"conceptId": "C111377", "definition": "Columbia-Suicidality Severity Rating Scale (C-SSRS) Children's Baseline Version 6/23/2010 (Posner, K.; Brent, D.; Lucas, C.; Gould, M.; Stanley, B.; Brown, G.; Fisher, P.; Zelazny, J.; Burke, A.; Oquendo, M.; Mann, J.; copyright 2008 The Research Foundation for Mental Hygiene, Inc.).", "preferredTerm": "Columbia-Suicide Severity Rating Scale Children's Baseline Questionnaire", "submissionValue": "C-SSRS CHILDREN'S BASELINE", "synonyms": ["CSS06"]}, {"conceptId": "C111378", "definition": "Columbia-Suicidality Severity Rating Scale (C-SSRS) Children's Baseline/Screening Version 6/23/2010 (Posner, K.; Brent, D.; Lucas, C.; Gould, M.; Stanley, B.; Brown, G.; Fisher, P.; Zelazny, J.; Burke, A.; Oquendo, M.; Mann, J.; copyright 2008 The Research Foundation for Mental Hygiene, Inc.).", "preferredTerm": "Columbia-Suicide Severity Rating Scale Children's Baseline/Screening Questionnaire", "submissionValue": "C-SSRS CHILDREN'S BASELINE/SCREENING", "synonyms": ["CSS07"]}, {"conceptId": "C111379", "definition": "Columbia-Suicidality Severity Rating Scale (C-SSRS) Children's Since Last Visit Version 6/23/2010 (Posner, K.; Brent, D.; Lucas, C.; Gould, M.; Stanley, B.; Brown, G.; Fisher, P.; Zelazny, J.; Burke, A.; Oquendo, M.; Mann, J.; copyright 2008 The Research Foundation for Mental Hygiene, Inc.).", "preferredTerm": "Columbia-Suicide Severity Rating Scale Children's Since Last Visit Questionnaire", "submissionValue": "C-SSRS CHILDREN'S SINCE LAST VIST", "synonyms": ["CSS08"]}, {"conceptId": "C117996", "definition": "Columbia-Suicidality Severity Rating Scale (C-SSRS) Lifetime/Recent Version 1/14/2009 (Posner, K.; Brent, D.; Lucas, C.; Gould, M.; Stanley, B.; Brown, G.; Fisher, P.; Zelazny, J.; Burke, A.; Oquendo, M.; Mann, J.; copyright 2008 The Research Foundation for Mental Hygiene, Inc.).", "preferredTerm": "Columbia-Suicide Severity Rating Scale Lifetime/Recent Version Questionnaire", "submissionValue": "C-SSRS LIFETIME/RECENT VERSION", "synonyms": ["CSS11"]}, {"conceptId": "C113873", "definition": "Columbia-Suicidality Severity Rating Scale (C-SSRS) Pediatric/Cognitively Impaired Lifetime/Recent Version 6/23/2010 (Posner, K.; Brent, D.; Lucas, C.; Gould, M.; Stanley, B.; Brown, G.; Fisher, P.; Zelazny, J.; Burke, A.; Oquendo, M.; Mann, J.; copyright 2008 The Research Foundation for Mental Hygiene, Inc.).", "preferredTerm": "Columbia-Suicide Severity Rating Scale Pediatric/Cognitively Impaired Lifetime/Recent Questionnaire", "submissionValue": "C-SSRS PEDIATRIC/COGNITIVELY IMPAIRED LIFETIME/RECENT", "synonyms": ["CSS10"]}, {"conceptId": "C111380", "definition": "Columbia-Suicidality Severity Rating Scale (C-SSRS) Screening Version 1/14/2009 (Posner, K.; Brent, D.; Lucas, C.; Gould, M.; Stanley, B.; Brown, G.; Fisher, P.; Zelazny, J.; Burke, A.; Oquendo, M.; Mann, J.; copyright 2008 The Research Foundation for Mental Hygiene, Inc.).", "preferredTerm": "Columbia-Suicide Severity Rating Scale Screening Questionnaire", "submissionValue": "C-SSRS SCREENING", "synonyms": ["CSS09"]}, {"conceptId": "C103516", "definition": "Columbia-Suicidality Severity Rating Scale (C-SSRS) Since Last Visit Version 1/14/2009 (Posner, K.; Brent, D.; Lucas, C.; Gould, M.; Stanley, B.; Brown, G.; Fisher, P.; Zelazny, J.; Burke, A.; Oquendo, M.; Mann, J.; copyright 2008 The Research Foundation for Mental Hygiene, Inc.).", "preferredTerm": "Columbia-Suicidality Severity Rating Scale Since Last Visit Questionnaire", "submissionValue": "C-SSRS SINCE LAST VISIT", "synonyms": ["CSS02"]}, {"conceptId": "C119100", "definition": "Clinical COPD Questionnaire (CCQ) 1 Week Version (The CCQ is copyrighted 1999. It may not be altered, sold (paper or electronic), translated or adapted for another medium without the permission of T. van der Molen, Dept. of General Practice, University Medical Center Groningen, Postbus 196, 9700 AD Groningen, The Netherlands.).", "preferredTerm": "Clinical COPD Questionnaire 1 Week Version", "submissionValue": "CCQ 1 WEEK VERSION", "synonyms": ["CCQ02"]}, {"conceptId": "C119099", "definition": "Clinical COPD Questionnaire (CCQ) 24 Hour Version (The CCQ is copyrighted 1999. It may not be altered, sold (paper or electronic), translated or adapted for another medium without the permission of T. van der Molen, Dept. of General Practice, University Medical Center Groningen, Postbus 196, 9700 AD Groningen, The Netherlands.).", "preferredTerm": "Clinical COPD Questionnaire 24 Hour Version", "submissionValue": "CCQ 24 HOUR VERSION", "synonyms": ["CCQ01"]}, {"conceptId": "C119092", "definition": "Children's Dermatology Life Quality Index (CDLQI) (Copyright of M.S. Lewis-Jones, A.Y. Finlay, May 1993, this must not be copied without the permission of the authors).", "preferredTerm": "Children's Dermatology Life Quality Index Questionnaire", "submissionValue": "CDLQ", "synonyms": ["CDLQ1"]}, {"conceptId": "C102114", "definition": "Clinical Dementia Rating (CDR) (Morris, JC. Clinical Dementia Rating: A reliable and valid diagnostic and staging measure for dementia of the Alzheimer type. International Psychogeriatrics 1997: 9, Suppl. 1, 173-176).", "preferredTerm": "Clinical Dementia Rating Questionnaire", "submissionValue": "CDR", "synonyms": ["CDR01"]}, {"conceptId": "C100763", "definition": "Clinical Global Impression (CGI) (Guy W: ECDEU Assessment Manual for Psychopharmacology. Rockville, MD: U.S. Department of Health, Education, and Welfare; 1976).", "preferredTerm": "Clinical Global Impression Questionnaire", "submissionValue": "CGI", "synonyms": ["CGI01"]}, {"conceptId": "C117995", "definition": "Craig Handicap Assessment and Reporting Technique - Short Form Interview Version (CHART-SF INTERVIEW VERSION) (Whiteneck GG, Charlifue SW, Gerhart KA, Overholser JD, Richardson GN. Quantifying handicap: a new measure of long-term rehabilitation outcomes. Arch Phys Med Rehabil. 1992;73:519-526).", "preferredTerm": "Craig Handicap Assessment and Reporting Technique-Short Form Interview Version Questionnaire", "submissionValue": "CHART-SF INTERVIEW VERSION", "synonyms": ["CHSF1"]}, {"conceptId": "C119101", "definition": "Craig Handicap Assessment and Reporting Technique - Short Form Paper Version (CHART-SF PAPER VERSION) (Whiteneck GG, Charlifue SW, Gerhart KA, Overholser JD, Richardson GN. Quantifying handicap: a new measure of long-term rehabilitation outcomes. Arch Phys Med Rehabil. 1992;73:519-526).", "preferredTerm": "Craig Handicap Assessment and Reporting Technique - Short Form Paper Version Questionnaire", "submissionValue": "CHART-SF PAPER VERSION", "synonyms": ["CHSF2"]}, {"conceptId": "C100764", "definition": "Current Opioid Misuse Measure (COMM) (copyright 2010 Inflexxion, Inc., All rights reserved).", "preferredTerm": "Current Opioid Misuse Measure Questionnaire", "submissionValue": "COMM", "synonyms": ["COMM1"]}, {"conceptId": "C102115", "definition": "The Clinical Opiate Withdrawal Scale (COWS) (Wesson DR and Ling W. The Clinical Opiate Withdrawal Scale (COWS). J Psychoactive Drugs 2003;35(2):253-259).", "preferredTerm": "Clinical Opiate Withdrawal Scale Questionnaire", "submissionValue": "COWS", "synonyms": ["COWS1"]}, {"conceptId": "C121002", "definition": "Chronic Respiratory Questionnaire Self-Administered Standardized Format (CRQ-SAS) First Administration Version (Copyright 2001 McMaster University, Hamilton, Ontario, Canada. The Chronic Respiratory Questionnaire Self-Administered including the standardized Dyspnea Domain (CRQSAS), Principal authors G.H. Guyatt and Dr. H.J. Schunemann, is the copyright of McMaster University (Copyright 2001, McMaster University).", "preferredTerm": "Chronic Respiratory Questionnaire Self-Administered Standardized Format First Administration Version Questionnaire", "submissionValue": "CRQ-SAS FIRST ADMINISTRATION VERSION", "synonyms": ["CRQ01"]}, {"conceptId": "C121003", "definition": "Chronic Respiratory Questionnaire Self-Administered Standardized Format (CRQ-SAS) Follow-up Administration Version (Copyright 2001 McMaster University, Hamilton, Ontario, Canada. The Chronic Respiratory Questionnaire Self-Administered including the standardized Dyspnea Domain (CRQSAS), Principal authors G.H. Guyatt and Dr. H.J. Schunemann, is the copyright of McMaster University (Copyright 2001, McMaster University).", "preferredTerm": "Chronic Respiratory Questionnaire Self-Administered Standardized Format Follow-Up Administration Version Questionnaire", "submissionValue": "CRQ-SAS FOLLOW-UP ADMINISTRATION VERSION", "synonyms": ["CRQ02"]}, {"conceptId": "C105165", "definition": "Disability Assessment for Dementia (DAD) (copyright 1994 by L. Gauthier I. Gelinas. All rights reserved.).", "preferredTerm": "Disability Assessment for Dementia Questionnaire", "submissionValue": "DAD", "synonyms": ["DAD01"]}, {"conceptId": "C112519", "definition": "Disease Steps (DS) (Hohol MJ, Orav EJ, Weiner HL. Disease steps in multiple sclerosis: a simple approach to evaluate disease progression. Neurology. 1995 Feb;45(2):251-5).", "preferredTerm": "Disease Steps Questionnaire", "submissionValue": "DISEASE STEPS", "synonyms": ["DS01"]}, {"conceptId": "C119102", "definition": "Dermatology Life Quality Index (DLQI) (Copyright Dermatology Life Quality Index. A Y Finlay, G K Khan, April 1992. www.dermatology.org.uk. This must not be copied without the permission of the authors).", "preferredTerm": "Dermatology Life Quality Index Questionnaire", "submissionValue": "DLQI", "synonyms": ["DLQI1"]}, {"conceptId": "C115796", "definition": "Disability Rating Scale (DRS) (Rappaport et al. (1982) Disability Rating Scale for Severe Head Trauma Patients: Coma to Community. Archives of Physical Medicine and Rehabilitation, 63:118-123).", "preferredTerm": "Disability Rating Scale Questionnaire", "submissionValue": "DRS", "synonyms": ["DRS01"]}, {"conceptId": "C102116", "definition": "Eastern Cooperative Oncology Group (ECOG) Performance Status (Oken MM, Creech RH, Tormey DC, Horton J, Davis TE, McFadden ET, Carbone PP. Toxicity and response criteria of the Eastern Cooperative Oncology Group. Am J Clin Oncol. 1982 Dec;5(6):649-55).", "preferredTerm": "Eastern Cooperative Oncology Group Performance Status Questionnaire", "submissionValue": "ECOG", "synonyms": ["ECOG1"]}, {"conceptId": "C112520", "definition": "Kurtzke Expanded Disability Status Scale (EDSS) (Kurtzke JF. Rating neurologic impairment in multiple sclerosis: an expanded disability status scale (EDSS). Neurology. 1983 Nov;33(11):1444-52).", "preferredTerm": "Kurtzke Expanded Disability Status Scale Questionnaire", "submissionValue": "EDSS", "synonyms": ["EDSS01"]}, {"conceptId": "C66957", "definition": "European Quality of Life Five Dimension Three Level Scale (EQ-5D-3L) (Copyright 1990 EuroQol Group. EQ-5D is a trade mark of the EuroQol Group).", "preferredTerm": "European Quality of Life Five Dimension Three Level Questionnaire", "submissionValue": "EQ-5D-3L", "synonyms": ["EQ5D01"]}, {"conceptId": "C102117", "definition": "European Quality of Life Five Dimension Five Level Scale (EQ-5D-5L) (Copyright 2009 EuroQol Group. EQ-5D is a trade mark of the EuroQol Group).", "preferredTerm": "European Quality of Life Five Dimension Five Level Scale Questionnaire", "submissionValue": "EQ-5D-5L", "synonyms": ["EQ5D02"]}, {"conceptId": "C117997", "definition": "Extrapyramidal Symptom Rating Scale-Abbreviated (ESRS-A) (Copyright 2006 Larry Alphs, MD, PhD, Guy Chouinard, MD, All Rights Reserved).", "preferredTerm": "Extrapyramidal Symptom Rating Scale-Abbreviated Questionnaire", "submissionValue": "ESRSA", "synonyms": ["ESRSA1"]}, {"conceptId": "C103517", "definition": "Epworth Sleepiness Scale (ESS) (copyright Murray W. Johns, 1990-1997. All rights reserved.).", "preferredTerm": "Epworth Sleepiness Scale Questionnaire", "submissionValue": "ESS", "synonyms": ["ESS01"]}, {"conceptId": "C112521", "definition": "Functional Assessment of Multiple Sclerosis Version 4 (FAMS) (Cella et al. Validation of the Functional Assessment of Multiple Sclerosis quality of life instrument. NEUROLOGY 1996;47: 129-139). (Questionnaires and all related subscales, translations, and adaptations ('FACIT System') are owned and copyrighted by David Cella, Ph.D. The ownership and copyright of the FACIT System resides strictly with Dr. Cella. Dr. Cella has granted FACIT.org the right to license usage of the FACIT System to other parties).", "preferredTerm": "Functional Assessment of Multiple Sclerosis Questionnaire", "submissionValue": "FAMS", "synonyms": ["FAMS01"]}, {"conceptId": "C111381", "definition": "Functional Activities Questionnaire (FAQ) (Pfeiffer, RI.; Kurosaki, TT.; Harrah, CH. Jr.; Chance, JM.; and Filos, S. (1982). Measurement of functional activities in older adults in the community. Journal of Gerontology, 37(3), 323-329.).", "preferredTerm": "Functional Activities Questionnaire", "submissionValue": "FAQ", "synonyms": ["FAQ01"]}, {"conceptId": "C111382", "definition": "Functional Activities Questionnaire-NACC (FAQ-NACC) (Pfeffer, RI.; Kurosaki, TT.; Harrah, CH. Jr.; Chance, JM.; and Filos, S. (1982). Measurement of functional activities in older adults in the community. Journal of Gerontology, 37(3), 323-329.). (Reproduced with permission. Copyright 2011 University of Washington. Created and published by the ADC Clinical Task Force. John C. Morris, MD, Chair, and the National Alzheimer's Coordinating Center. U01 AG016976 - Walter A. Kukull, PhD, Director).", "preferredTerm": "Functional Activities Questionnaire-NACC Version", "submissionValue": "FAQ-NACC", "synonyms": ["FAQ02"]}, {"conceptId": "C103518", "definition": "Revised Fibromyalgia Impact Questionnaire (FIQR) (copyright 2009 Bennett RM and Friend. All Rights Reserved.).", "preferredTerm": "Revised Fibromyalgia Impact Questionnaire", "submissionValue": "FIQR", "synonyms": ["FIQR01"]}, {"conceptId": "C119093", "definition": "Influenza Intensity and Impact Questionnaire (Flu-iiQ) Once Daily (Copyright RH Osborne 2006. No part of the Flu-iiQ may be copied or reproduced in any form without written permission from the author: measuredsolutions@bigpond.com).", "preferredTerm": "Influenza Intensity and Impact Questionnaire Once Daily Version", "submissionValue": "FLU-IIQ ONCE DAILY", "synonyms": ["FLUIQ1"]}, {"conceptId": "C119094", "definition": "Influenza Intensity and Impact Questionnaire (Flu-iiQ) Twice Daily (Copyright RH Osborne 2006. No part of the Flu-iiQ may be copied or reproduced in any form without written permission from the author: measuredsolutions@bigpond.com).", "preferredTerm": "Influenza Intensity and Impact Questionnaire Twice Daily Version", "submissionValue": "FLU-IIQ TWICE DAILY", "synonyms": ["FLUIQ2"]}, {"conceptId": "C100766", "definition": "Faces Pain Scale - Revised (FPS-R) (Hicks CL, von Baeyer CL, van Korlaar I, Goodenough B. Faces Pain Scale-Revised: Toward a Common Metric in Pediatric Pain Measurement. Pain 2001; 93:173-183).", "preferredTerm": "Faces Pain Scale Revised Questionnaire", "submissionValue": "FPSR", "synonyms": ["FPSR1"]}, {"conceptId": "C106621", "definition": "Fatigue Severity Scale (FSS) (Copyright Lauren B. Krupp).", "preferredTerm": "Fatigue Severity Scale", "submissionValue": "FSS", "synonyms": ["FSS01"]}, {"conceptId": "C103519", "definition": "Generalized Anxiety Disorder - 7 (GAD-7) (Spitzer RL, Kroenke K, Williams JBW, Lowe B. A brief measure for assessing generalized anxiety disorder: The GAD-7. Arch Intern Med 2006; 166:1092-1097).", "preferredTerm": "Generalized Anxiety Disorder - 7 Questionnaire", "submissionValue": "GAD-7", "synonyms": ["GAD01"]}, {"conceptId": "C105169", "definition": "The General Clinical Global Impressions (GCGI v1) questions were created by STANDARDS (Standardized Analgesic Database for Research, Discovery, and Submissions) and sponsored by ACTTION (Analgesic Clinical Trial Translations, Innovations, Opportunities, and Networks) www.acttion.org; 2012-08-07 v1.", "preferredTerm": "STANDARDS General Clinical Global Impressions Questionnaire", "submissionValue": "GCGI", "synonyms": ["GCGI01"]}, {"conceptId": "C106697", "definition": "Geriatric Depression Scale (GDS) (Yesavage JA, Brink TL, Rose TL, et al. Development and validation of a geriatric depression screening scale: a preliminary report. J Psychiatry Res. 1983;17(1):37-49).", "preferredTerm": "Geriatric Depression Scale Questionnaire", "submissionValue": "GDS", "synonyms": ["GDS01"]}, {"conceptId": "C106698", "definition": "Geriatric Depression Scale Short Form (GDS Short Form) (Sheikh JI, Yesavage JA. Geriatric Depression Scale (GDS): recent evidence and development of a shorter version. Clin Gerontol. 1986 June;5(1/2):165-173).", "preferredTerm": "Geriatric Depression Scale Short Form Questionnaire", "submissionValue": "GDS SHORT FORM", "synonyms": ["GDS02"]}, {"conceptId": "C115797", "definition": "Extended Glasgow Outcome Scale (GOSE) (Wilson JT, Pettigrew LE, Teasdale GM. Structured interviews for the Glasgow Outcome Scale and the Extended Glasgow Outcome Scale: Guidelines for their use. Journal of Neurotrauma 1998;15:573-585).", "preferredTerm": "Extended Glasgow Outcome Scale Questionnaire", "submissionValue": "GOSE", "synonyms": ["GOSE1"]}, {"conceptId": "C103520", "definition": "Hospital Anxiety and Depression Scale (HADS) (copyright 1983, 1992, 1994 by R.P. Snaith and A.S. Zigmond. All rights reserved.).", "preferredTerm": "Hospital Anxiety and Depression Scale Questionnaire", "submissionValue": "HADS", "synonyms": ["HADS01"]}, {"conceptId": "C102118", "definition": "The Hamilton Anxiety Rating Scale (HAM-A) (Hamilton M. The assessment of anxiety states by rating. Br J Med Psychol 1959; 32:50-55).", "preferredTerm": "Hamilton Anxiety Rating Scale Questionnaire", "submissionValue": "HAM-A", "synonyms": ["HAMA1"]}, {"conceptId": "C100767", "definition": "The Hamilton Depression Rating Scale 17-Item (HAMD 17) (Hamilton M. Development of a rating scale for primary depressive illness. Br J Soc Clin Psychol 1967; 6(4):278-96).", "preferredTerm": "Hamilton Depression Rating Scale 17 Item Questionnaire", "submissionValue": "HAMD 17", "synonyms": ["HAMD1"]}, {"conceptId": "C102119", "definition": "The Hamilton Depression Rating Scale 21-Item (HAMD 21) (Hedlund and Vieweg, The Hamilton rating scale for depression. Journal of Operational Psychiatry, 1979;10(2):149-165).", "preferredTerm": "Hamilton Depression Rating Scale 21-Item Questionnaire", "submissionValue": "HAMD 21", "synonyms": ["HAMD2"]}, {"conceptId": "C106699", "definition": "Health Assessment Questionnaire Disability Index (HAQ-DI) (Fries JF. The assessment of disability: from first to future principles. Br J Rheumatol. 1983 Aug; 22(3 Suppl):48-58).", "preferredTerm": "Health Assessment Questionnaire Disability Index Questionnaire", "submissionValue": "HAQ-DI", "synonyms": ["HAQ01"]}, {"conceptId": "C103521", "definition": "International Index of Erectile Function (IIEF) (Rosen RC, Riley A, Wagner G, Osterloh IH, Kirkpatrick J, and Mishra A. The international index of erectile function (IIEF): a multidimensional scale for assessment of erectile dysfunction. Urology. 1997 49(6): 822-830).", "preferredTerm": "International Index of Erectile Function Questionnaire", "submissionValue": "IIEF", "synonyms": ["IIEF01"]}, {"conceptId": "C113876", "definition": "Impact of Visual Impairment Scale (IVIS) (1997 by the National Multiple Sclerosis Society. All rights reserved).", "preferredTerm": "Impact of Visual Impairment Scale Questionnaire", "submissionValue": "IVIS", "synonyms": ["IVIS01"]}, {"conceptId": "C112522", "definition": "Kurtzke Functional Systems Scores (FSS) (Kurtzke JF. Rating neurologic impairment in multiple sclerosis: an expanded disability status scale (EDSS). Neurology. 1983 Nov;33(11):1444-52).", "preferredTerm": "Kurtzke Functional Systems Scores Questionnaire", "submissionValue": "KFSS", "synonyms": ["KFSS1"]}, {"conceptId": "C100768", "definition": "The Karnofsky Performance Status Scale (KPSS) (Karnofsky DA, Burchenal JH. (1949). \"The Clinical Evaluation of Chemotherapeutic Agents in Cancer.\" In: MacLeod CM (Ed), Evaluation of Chemotherapeutic Agents. Columbia Univ Press. Page 196).", "preferredTerm": "Karnofsky Performance Status Scale Questionnaire", "submissionValue": "KPS SCALE", "synonyms": ["KPSS"]}, {"conceptId": "C100769", "definition": "The Movement Disorder Society version of the Unified Parkinson's Disease Rating Scale (MDS-UPDRS) (copyright 2008 Movement Disorder Society. All Rights Reserved).", "preferredTerm": "Movement Disorder Society Unified Parkinson's Disease Rating Scale Questionnaire", "submissionValue": "MDS-UPDRS", "synonyms": ["UPD2"]}, {"conceptId": "C113877", "definition": "Modified Fatigue Impact Scale (MFIS) (1997 by the National Multiple Sclerosis Society. All rights reserved).", "preferredTerm": "Modified Fatigue Impact Scale Questionnaire", "submissionValue": "MFIS", "synonyms": ["MFIS01"]}, {"conceptId": "C112523", "definition": "Modified Hachinski Ischemic Scale-NACC Version (MHIS-NACC) Reproduced with permission. Copyright 2011 University of Washington. Created and published by the ADC Clinical Task Force (John C. Morris, MD, Chair) and the National Alzheimer's Coordinating Center (Walter A. Kukull, PhD, Director). This publication was funded by the National Institutes of Health through the National Institute on Aging (Cooperative Agreement U01 AG016976).", "preferredTerm": "Modified Hachinski Ischemic Scale-NACC Version Questionnaire", "submissionValue": "MHIS-NACC", "synonyms": ["MHIS01"]}, {"conceptId": "C106700", "definition": "Modified Medical Research Council dyspnea scale (MMRC) (Mahler DA, Wells CK. Evaluation of Clinical Methods for Rating Dyspnea. Chest 1988; 93:580-586).", "preferredTerm": "Modified Medical Research Council Dyspnea Scale Questionnaire", "submissionValue": "MMRC", "synonyms": ["MMRC01"]}, {"conceptId": "C100771", "definition": "Michigan Neuropathy Screening Instrument (MNSI) (copyright University of Michigan, 2000, All rights reserved).", "preferredTerm": "Michigan Neuropathy Screening Instrument Questionnaire", "submissionValue": "MNSI", "synonyms": ["MNSI1"]}, {"conceptId": "C115798", "definition": "The Mayo-Portland Adaptability Inventory-4 (MPAI-4) (Malec, J. (2005). The Mayo-Portland Adaptability Inventory-4. The Center for Outcome Measurement in Brain Injury. http://www.tbims.org/combi/mpai).", "preferredTerm": "Mayo-Portland Adaptability Inventory-4 Questionnaire", "submissionValue": "MPAI-4", "synonyms": ["MPAI1"]}, {"conceptId": "C111383", "definition": "Modified Rankin Scale (MRS) (Van Swieten J., Koudstaal P., Visser M., Schouten H., and Van Gijn J. Interobserver agreement for the assessment of handicap in stroke patients, 1988. Stroke 19: 604-607).", "preferredTerm": "Modified Rankin Scale Questionnaire", "submissionValue": "MRS", "synonyms": ["MRS01"]}, {"conceptId": "C113878", "definition": "Multiple Sclerosis Quality of Life-54 Instrument (MSQOL-54) (Copyright 1995, University of California, Los Angeles).", "preferredTerm": "Multiple Sclerosis Quality of Life-54 Instrument Questionnaire", "submissionValue": "MSQOL-54", "synonyms": ["MSQL1"]}, {"conceptId": "C100772", "definition": "Neuropsychiatric Inventory (NPI) (copyright JL Cummings, 1994, all rights reserved; permission for commercial use required; npiTEST.net).", "preferredTerm": "Neuropsychiatric Inventory Questionnaire", "submissionValue": "NPI", "synonyms": ["NPI1"]}, {"conceptId": "C103522", "definition": "Neuropathic Pain Scale (NPS) (copyright Brad Galer and Mark Jensen. All rights reserved.).", "preferredTerm": "Neuropathic Pain Scale Questionnaire", "submissionValue": "NPS", "synonyms": ["NPS01"]}, {"conceptId": "C103523", "definition": "The Overactive Bladder Questionnaire (OAB-q) (Coyne K, Revicki D, Hunt T, et al. Psychometric validation of an overactive bladder symptom and health-related quality of life questionnaire: the OAB-q. Qual Life Res. Sep 2002; 11(6):563-574).", "preferredTerm": "The Overactive Bladder Questionnaire", "submissionValue": "OAB-Q", "synonyms": ["OABQ01"]}, {"conceptId": "C103524", "definition": "The Overactive Bladder Questionnaire Short Form (OAB-q Short Form) (Coyne KS, Lai JS, Zyczynski T, Kopp Z, Avery K, Abrams P. An overactive bladder symptom and quality-of-life short form: development of the Overactive Bladder Questionnaire (OAB-q) short form (SF). Presented at the Joint Meeting of the International Continence Society and the International Urogynecological Association; August 23-27, 2004; Paris, France).", "preferredTerm": "The Overactive Bladder Questionnaire Short Form", "submissionValue": "OAB-Q SHORT FORM", "synonyms": ["OABQ02"]}, {"conceptId": "C119095", "definition": "Ocular Comfort Index (OCI) (The copyright owner of the Ocular Comfort Index is Dr. Michael Edward Johnson. Michael E. Johnson and Paul J. Murphy. Measurement of Ocular Surface Irritation on a Linear Interval Scale with the Ocular Comfort Index. Investigative Ophthalmology and Visual Science, October 2007, Vol. 48, No.10).", "preferredTerm": "Ocular Comfort Index Questionnaire", "submissionValue": "OCI", "synonyms": ["OCI01"]}, {"conceptId": "C103525", "definition": "The Oswestry Disability Index Version 2.1a (ODI v2.1A) (copyright 1980 Jeremy Fairbank. All Rights Reserved.).", "preferredTerm": "The Oswestry Disability Index Version 2.1a Questionnaire", "submissionValue": "ODI v2.1A", "synonyms": ["ODI01"]}, {"conceptId": "C112524", "definition": "Patient Determined Disease Steps (PDDS) (Hohol MJ, Orav EJ, Weiner HL. Disease Steps in multiple sclerosis: A simple approach to evaluate disease progression. Neurology 1995; 45: 251-55). (Hohol MJ, Orav EJ, Weiner HL. Disease Steps in multiple sclerosis: a longitudinal study comparing disease steps and EDSS to evaluate disease progression. Multiple Sclerosis 1999; 5: 349-54). (Marrie RA and Goldman M. Validity of performance scales for disability assessment in multiple sclerosis. Multiple Sclerosis 2007; 13: 1176-1182). (The PDDS and/or PS are provided for use by the NARCOMS Registry: www.narcoms.org/pdds. NARCOMS is supported in part by the Consortium of Multiple Sclerosis Centers (CMSC) and the CMSC Foundation).", "preferredTerm": "Patient Determined Disease Steps Questionnaire", "submissionValue": "PDDS", "synonyms": ["PDDS01"]}, {"conceptId": "C100773", "definition": "Parkinson's Disease Quality of Life Scale (PDQUALIF) (Welsh M, McDermott MP, Holloway RG, Plumb S, Pfeiffer R, Hubble J, and The Parkinson Study Group. Development and Testing of the Parkinson's Disease Quality of Life Scale. Movement Disorders, 2003, Vol. 18; 637-645).", "preferredTerm": "Parkinson's Disease Quality of Life Scale Questionnaire", "submissionValue": "PDQUALIF", "synonyms": ["PDQ01"]}, {"conceptId": "C103527", "definition": "Patient Health Questionnaire - 15 (PHQ-15) (Kroenke K, Spitzer RL, Williams JBW. The PHQ-15: Validity of a new measure for evaluating the severity of somatic symptoms. Psychosom Med 2002; 64:258-266).", "preferredTerm": "Patient Health Questionnaire - 15 Item", "submissionValue": "PHQ-15", "synonyms": ["PHQ02"]}, {"conceptId": "C103526", "definition": "Patient Health Questionnaire - 9 (PHQ-9) (Kroenke K, Spitzer RL, Williams JBW. The PHQ-9: Validity of a brief depression severity measure. J Gen Intern Med 2001; 16:606-613).", "preferredTerm": "Patient Health Questionnaire - 9 Item", "submissionValue": "PHQ-9", "synonyms": ["PHQ01"]}, {"conceptId": "C105167", "definition": "The Pain Intensity (PI) questions were created by STANDARDS (Standardized Analgesic Database for Research, Discovery, and Submissions) and sponsored by ACTTION (Analgesic Clinical Trial Translations, Innovations, Opportunities, and Networks) www.acttion.org; 2012-08-07 v1.", "preferredTerm": "STANDARDS Pain Intensity Questionnaire", "submissionValue": "PI", "synonyms": ["PI01"]}, {"conceptId": "C105168", "definition": "The Pain Relief (PR) questions were created by STANDARDS (Standardized Analgesic Database for Research, Discovery, and Submissions) and sponsored by ACTTION (Analgesic Clinical Trial Translations, Innovations, Opportunities, and Networks) www.acttion.org; 2012-08-07 v1.", "preferredTerm": "STANDARDS Pain Relief Questionnaire", "submissionValue": "PR", "synonyms": ["PR01"]}, {"conceptId": "C113879", "definition": "RAND 36-Item Health Survey 1.0 (RAND-36) (Copyright the RAND Corporation. Developed at RAND as part of the Medical Outcomes Study).", "preferredTerm": "RAND 36-Item Health Survey 1.0 Questionnaire", "submissionValue": "RAND-36 V1.0", "synonyms": ["R3601"]}, {"conceptId": "C100774", "definition": "Roland Morris Disability Questionnaire (RDQ) (Roland MO, Morris RW. A study of the natural history of back pain. Part 1: Development of a reliable and sensitive measure of disability in low back pain. Spine 1983;8:141-144).", "preferredTerm": "Roland Morris Disability Questionnaire", "submissionValue": "RDQ", "synonyms": ["RDQ01"]}, {"conceptId": "C119103", "definition": "Rivermead Post Concussion Symptoms Questionnaire (RPQ) (King NS, Crawford S, Wenden FJ, Moss NEG, Wade DT. The Rivermead Post Concussion Symptoms Questionnaire: a measure of symptoms commonly experienced after head injury and its reliability. J Neurol. 1995;242:587-592).", "preferredTerm": "Rivermead Post-Concussion Symptoms Questionnaire", "submissionValue": "RPQ", "synonyms": ["RPQ01"]}, {"conceptId": "C111384", "definition": "Sheehan Disability Scale (Copyright 1983, 2010, 2011 David V. Sheehan. All rights reserved.).", "preferredTerm": "Sheehan Disability Scale Questionnaire", "submissionValue": "SDS", "synonyms": ["SDS01"]}, {"conceptId": "C112525", "definition": "St. George's Respiratory Questionnaire (SGRQ) Past 3 Months Version (copyright P.W. Jones, St. George's University of London).", "preferredTerm": "St. George's Respiratory Questionnaire Past 3 Months Version", "submissionValue": "SGRQ PAST 3 MONTHS VERSION", "synonyms": ["SGRQ01"]}, {"conceptId": "C112526", "definition": "St. George's Respiratory Questionnaire (SGRQ) Past 4 Weeks Version (copyright P.W. Jones, St. George's University of London).", "preferredTerm": "St. George's Respiratory Questionnaire Past 4 Weeks Version", "submissionValue": "SGRQ PAST 4 WEEKS VERSION", "synonyms": ["SGRQ02"]}, {"conceptId": "C106890", "definition": "St. George's Respiratory Questionnaire for COPD Patients (SGRQ-C) (Jones PW, Quirk FH, Baveystock CM, and Littlejohns PA. Self-complete measure of health status for chronic airflow limitation. The St. George's Respiratory Questionnaire. Am Rev Respir Dis. 1992 Jun; 145(6):1321-7).", "preferredTerm": "St. George's Respiratory Questionnaire for Chronic Obstructive Pulmonary Disease Patients", "submissionValue": "SGRQ-C", "synonyms": ["SGRQC1"]}, {"conceptId": "C100776", "definition": "Short-Form McGill Pain Questionnaire-2 (SF-MPQ-2) (Copyright R. Melzack and the Initiative on Methods, Measurement, and Pain Assessment in Clinical Trials (IMMPACT), 2009, All Rights Reserved).", "preferredTerm": "Short-Form McGill Pain Questionnaire-2", "submissionValue": "SHORT-FORM MPQ-2", "synonyms": ["SFMP2"]}, {"conceptId": "C103528", "definition": "Symptom Impact Questionnaire (SIQR) (copyright 2009 Bennett RM and Friend. All Rights Reserved.).", "preferredTerm": "Symptom Impact Questionnaire", "submissionValue": "SIQR", "synonyms": ["SIQR01"]}, {"conceptId": "C100777", "definition": "Screener and Opioid Assessment for Patients with Pain Revised (SOAPP-R) (copyright 2007 Inflexxion, Inc., All rights reserved).", "preferredTerm": "Screener and Opioid Assessment for Patients with Pain Revised Questionnaire", "submissionValue": "SOAPP-R", "synonyms": ["SOAPR1"]}, {"conceptId": "C103529", "definition": "Short Opiate Withdrawal Scale (SOWS SHORT) (Gossop, M. The development of a short opiate withdrawal scale. Addictive Behaviors 1990; 15:487-490).", "preferredTerm": "Short Opiate Withdrawal Scale Questionnaire", "submissionValue": "SOWS SHORT", "synonyms": ["SOWSB1"]}, {"conceptId": "C102123", "definition": "The Subjective Opiate Withdrawal Scale (SOWS) (Handelsman, L., Cochrane, K. J., Aronson, M. J. Ness, R., Rubinstein K.J., Kanof, P.D. (1987) Two New Rating Scales for Opiate Withdrawal. American Journal of Alcohol Abuse, 13, 293-308).", "preferredTerm": "Subjective Opiate Withdrawal Scale Questionnaire", "submissionValue": "SOWS SUBJECTIVE", "synonyms": ["SOWSA1"]}, {"conceptId": "C115799", "definition": "The Satisfaction With Life Scale (SWLS) (Diener, E., Emmons, R., Larsen, J., and Griffin, S. (1985). The Satisfaction With Life Scale. J Personality Assessment, 49(1): 71-75).", "preferredTerm": "Satisfaction With Life Scale Questionnaire", "submissionValue": "SWLS", "synonyms": ["SWLS01"]}, {"conceptId": "C106694", "definition": "Transition Dyspnea Index (TDI) (Mahler DA, Weinberg DH, Wells CK, Feinstein AR. The measurement of dyspnea. Contents, interobserver agreement, and physiologic correlates of two new clinical indexes. Chest 1984, 85: 751-758).", "preferredTerm": "Transition Dyspnea Index Questionnaire", "submissionValue": "TDI", "synonyms": ["TDI01"]}, {"conceptId": "C100778", "definition": "Unified Parkinson's Disease Rating Scale (UPDRS) (Fahn S, Marsden CD, Calne DB, Goldstein M, eds. Recent Developments in Parkinson's Disease, Vol 2. Florham Park, NJ. Macmillan Health Care Information 1987, pp 153-163, 293-304).", "preferredTerm": "Unified Parkinson's Disease Rating Scale Questionnaire", "submissionValue": "UPDRS", "synonyms": ["UPD1"]}, {"conceptId": "C103530", "definition": "Urgency Perception Scale (UPS) (copyright Pfizer. All rights reserved.).", "preferredTerm": "Urgency Perception Scale Questionnaire", "submissionValue": "UPS", "synonyms": ["UPS01"]}, {"conceptId": "C112527", "definition": "National Eye Institute Visual Functioning Questionnaire - 25 (VFQ-25) Version 2000 Interviewer-Administered Format (Mangione, C. M., Lee, P. P., Gutierrez, P. R., Spritzer, K., Berry, S., & Hays, R. D. Development of the 25-item National Eye Institute Visual Function Questionnaire (VFQ-25). Archives of Ophthalmology. 2001; 119:1050-1058). (This instrument was developed at RAND under the sponsorship of the National Eye Institute).", "preferredTerm": "Visual Functioning Questionnaire 25-Interviewer Administered Format Version 2000", "submissionValue": "VFQ-25 INTERVIEWER ADMINISTERED", "synonyms": ["VFQ1"]}, {"conceptId": "C112528", "definition": "National Eye Institute Visual Functioning Questionnaire - 25 (VFQ-25) Version 2000 Self-Administered Format (Mangione, C. M., Lee, P. P., Gutierrez, P. R., Spritzer, K., Berry, S., & Hays, R. D. Development of the 25-item National Eye Institute Visual Function Questionnaire (VFQ-25). Archives of Ophthalmology. 2001; 119:1050-1058). (This instrument was developed at RAND under the sponsorship of the National Eye Institute).", "preferredTerm": "Visual Functioning Questionnaire 25-Self Administered Format Version 2000", "submissionValue": "VFQ-25 SELF ADMINISTERED", "synonyms": ["VFQ2"]}, {"conceptId": "C119096", "definition": "Work Limitations Questionnaire (WLQ) (copyright 1998. The Health Institute, Tufts Medical Center f/k/a New England Medical Center Hospitals, Inc.; Debra Lerner, Ph.D.; Benjamin Amick III, Ph.D.; and GlaxoWellcome, Inc. All Rights Reserved).", "preferredTerm": "Work Limitations Questionnaire", "submissionValue": "WLQ", "synonyms": ["WLQ01"]}, {"conceptId": "C100779", "definition": "The Work Productivity and Activity Impairment - Specific Health Problems Questionnaire Version 2.0 (WPAI01) (http://www.reillyassociates.net/WPAI_SHP.html).", "preferredTerm": "Work Productivity and Activity Impairment Specific Health Problems Version 2.0 Questionnaire", "submissionValue": "WPAI-SHP", "synonyms": ["WPAI01"]}, {"conceptId": "C102124", "definition": "Young Mania Rating Scale (YMRS) (Young RC, Biggs JT, Ziegler VE et al: A rating scale for mania: reliability, validity and sensitivity. Br J Psychiatry 133: 429-435, 1978).", "preferredTerm": "Young Mania Rating Scale Questionnaire", "submissionValue": "YMRS", "synonyms": ["YMRS01"]}]}