{"_links": {"parentPackage": {"href": "/mdr/ct/packages/coact-2015-03-27", "title": "COA Controlled Terminology Package 21 Effective 2015-03-27", "type": "Terminology"}, "priorVersion": {"href": "/mdr/ct/packages/coact-2014-12-19/codelists/C111348", "title": "CDISC Questionnaire MRS Test Code Terminology", "type": "Code List"}, "rootItem": {"href": "/mdr/root/ct/coact/codelists/C111348", "title": "Version-agnostic anchor resource for codelist C111348", "type": "Root Value Domain"}, "self": {"href": "/mdr/ct/packages/coact-2015-03-27/codelists/C111348", "title": "CDISC Questionnaire MRS Test Code Terminology", "type": "Code List"}}, "conceptId": "C111348", "definition": "Modified Rankin Scale test code.", "extensible": "false", "name": "QS-Modified Rankin Scale Questionnaire Test Code", "preferredTerm": "CDISC Questionnaire MRS Test Code Terminology", "submissionValue": "MRS TESTCD", "synonyms": ["QS-Modified Rankin Scale Questionnaire Test Code"], "terms": [{"conceptId": "C111520", "definition": "Modified Rankin Scale - Modified Rankin Scale Score.", "preferredTerm": "MRS - Modified Rankin Scale Score", "submissionValue": "MRS0101", "synonyms": ["MRS01-Modified Rankin Scale Score"]}]}