{"_links": {"parentPackage": {"href": "/mdr/ct/packages/coact-2015-03-27", "title": "COA Controlled Terminology Package 21 Effective 2015-03-27", "type": "Terminology"}, "priorVersion": {"href": "/mdr/ct/packages/coact-2014-12-19/codelists/C111347", "title": "CDISC Questionnaire MRS Test Name Terminology", "type": "Code List"}, "rootItem": {"href": "/mdr/root/ct/coact/codelists/C111347", "title": "Version-agnostic anchor resource for codelist C111347", "type": "Root Value Domain"}, "self": {"href": "/mdr/ct/packages/coact-2015-03-27/codelists/C111347", "title": "CDISC Questionnaire MRS Test Name Terminology", "type": "Code List"}}, "conceptId": "C111347", "definition": "Modified Rankin Scale test name.", "extensible": "false", "name": "QS-Modified Rankin Scale Questionnaire Test Name", "preferredTerm": "CDISC Questionnaire MRS Test Name Terminology", "submissionValue": "MRS TEST", "synonyms": ["QS-Modified Rankin Scale Questionnaire Test Name"], "terms": [{"conceptId": "C111520", "definition": "Modified Rankin Scale - Modified Rankin Scale Score.", "preferredTerm": "MRS - Modified Rankin Scale Score", "submissionValue": "MRS01-Modified Rankin Scale Score", "synonyms": ["MRS01-Modified Rankin Scale Score"]}]}