{"_links": {"parentPackage": {"href": "/mdr/ct/packages/coact-2015-03-27", "title": "COA Controlled Terminology Package 21 Effective 2015-03-27", "type": "Terminology"}, "priorVersion": {"href": "/mdr/ct/packages/coact-2014-12-19/codelists/C113857", "title": "CDISC Questionnaire Modified Fatigue Impact Scale Test Name Terminology", "type": "Code List"}, "rootItem": {"href": "/mdr/root/ct/coact/codelists/C113857", "title": "Version-agnostic anchor resource for codelist C113857", "type": "Root Value Domain"}, "self": {"href": "/mdr/ct/packages/coact-2015-03-27/codelists/C113857", "title": "CDISC Questionnaire Modified Fatigue Impact Scale Test Name Terminology", "type": "Code List"}}, "conceptId": "C113857", "definition": "Modified Fatigue Impact Scale test name.", "extensible": "false", "name": "QS-Modified Fatigue Impact Scale Test Name", "preferredTerm": "CDISC Questionnaire Modified Fatigue Impact Scale Test Name Terminology", "submissionValue": "MFIS TEST", "synonyms": ["QS-Modified Fatigue Impact Scale Test Name"], "terms": [{"conceptId": "C113970", "definition": "Modified Fatigue Impact Scale - Because of my fatigue during the past 4 weeks I have been clumsy and uncoordinated.", "preferredTerm": "MFIS - Have Been Clumsy and Uncoordinated", "submissionValue": "MFIS01-Been Clumsy and Uncoordinated", "synonyms": ["MFIS01-Been Clumsy and Uncoordinated"]}, {"conceptId": "C113980", "definition": "Modified Fatigue Impact Scale - Because of my fatigue during the past 4 weeks I have been physically uncomfortable.", "preferredTerm": "MFIS - Been Physically Uncomfortable", "submissionValue": "MFIS01-Been Physically Uncomfortable", "synonyms": ["MFIS01-Been Physically Uncomfortable"]}, {"conceptId": "C113982", "definition": "Modified Fatigue Impact Scale - Because of my fatigue during the past 4 weeks I have had difficulty organizing my thoughts when doing things at home or at work.", "preferredTerm": "MFIS - Difficulty Organizing My Thoughts", "submissionValue": "MFIS01-Difficulty Organizing My Thoughts", "synonyms": ["MFIS01-Difficulty Organizing My Thoughts"]}, {"conceptId": "C113969", "definition": "Modified Fatigue Impact Scale - Because of my fatigue during the past 4 weeks I have been unable to think clearly.", "preferredTerm": "MFIS - Unable to Think Clearly", "submissionValue": "MFIS01-Have Been Unable to Think Clearly", "synonyms": ["MFIS01-Have Been Unable to Think Clearly"]}, {"conceptId": "C113977", "definition": "Modified Fatigue Impact Scale - Because of my fatigue during the past 4 weeks I have had difficulty making decisions.", "preferredTerm": "MFIS - Have Difficulty Making Decisions", "submissionValue": "MFIS01-Have Difficulty Making Decisions", "synonyms": ["MFIS01-Have Difficulty Making Decisions"]}, {"conceptId": "C113968", "definition": "Modified Fatigue Impact Scale - Because of my fatigue during the past 4 weeks I have had difficulty paying attention for long periods of time.", "preferredTerm": "MFIS - Have Difficulty Paying Attention for Long Time", "submissionValue": "MFIS01-Have Difficulty Paying Attention", "synonyms": ["MFIS01-Have Difficulty Paying Attention"]}, {"conceptId": "C113986", "definition": "Modified Fatigue Impact Scale - Because of my fatigue during the past 4 weeks I have limited my physical activities.", "preferredTerm": "MFIS - Have Limited My Physical Activities", "submissionValue": "MFIS01-Have Limited My Physical Activity", "synonyms": ["MFIS01-Have Limited My Physical Activity"]}, {"conceptId": "C113971", "definition": "Modified Fatigue Impact Scale - Because of my fatigue during the past 4 weeks I have been forgetful.", "preferredTerm": "MFIS - Have Been Forgetful", "submissionValue": "MFIS01-I Have Been Forgetful", "synonyms": ["MFIS01-I Have Been Forgetful"]}, {"conceptId": "C113967", "definition": "Modified Fatigue Impact Scale - Because of my fatigue during the past 4 weeks I have been less alert.", "preferredTerm": "MFIS - Have Been Less Alert", "submissionValue": "MFIS01-I Have Been Less Alert", "synonyms": ["MFIS01-I Have Been Less Alert"]}, {"conceptId": "C113985", "definition": "Modified Fatigue Impact Scale - Because of my fatigue during the past 4 weeks I have had trouble concentrating.", "preferredTerm": "MFIS - Have Trouble Concentrating", "submissionValue": "MFIS01-I Have Had Trouble Concentrating", "synonyms": ["MFIS01-I Have Had Trouble Concentrating"]}, {"conceptId": "C113983", "definition": "Modified Fatigue Impact Scale - Because of my fatigue during the past 4 weeks I have been less able to complete tasks that require physical effort.", "preferredTerm": "MFIS - Less Able to Complete Tasks That Require Physical Effort", "submissionValue": "MFIS01-Less Able Complete Physical Tasks", "synonyms": ["MFIS01-Less Able Complete Physical Tasks"]}, {"conceptId": "C113973", "definition": "Modified Fatigue Impact Scale - Because of my fatigue during the past 4 weeks I have been less motivated to do anything that requires physical effort.", "preferredTerm": "MFIS - Less Motivated to Do Anything That Requires Physical Effort", "submissionValue": "MFIS01-Less Motivated, Physical Effort", "synonyms": ["MFIS01-Less Motivated, Physical Effort"]}, {"conceptId": "C113974", "definition": "Modified Fatigue Impact Scale - Because of my fatigue during the past 4 weeks I have been less motivated to participate in social activities.", "preferredTerm": "MFIS - Less Motivated to Participate in Social Activities", "submissionValue": "MFIS01-Less Motivated, Social Activity", "synonyms": ["MFIS01-Less Motivated, Social Activity"]}, {"conceptId": "C113978", "definition": "Modified Fatigue Impact Scale - Because of my fatigue during the past 4 weeks I have been less motivated to do anything that requires thinking.", "preferredTerm": "MFIS - Less Motivated to Do Anything That Requires Thinking", "submissionValue": "MFIS01-Less Motivated, Thinking", "synonyms": ["MFIS01-Less Motivated, Thinking"]}, {"conceptId": "C113975", "definition": "Modified Fatigue Impact Scale - Because of my fatigue during the past 4 weeks I have been limited in my ability to do things away from home.", "preferredTerm": "MFIS - Limited in My Abilities to Do Things Away From Home", "submissionValue": "MFIS01-Limited in Ability Away From Home", "synonyms": ["MFIS01-Limited in Ability Away From Home"]}, {"conceptId": "C113979", "definition": "Modified Fatigue Impact Scale - Because of my fatigue during the past 4 weeks my muscles have felt weak.", "preferredTerm": "MFIS - Muscles Have Felt Weak", "submissionValue": "MFIS01-My Muscles Have Felt Weak", "synonyms": ["MFIS01-My Muscles Have Felt Weak"]}, {"conceptId": "C113984", "definition": "Modified Fatigue Impact Scale - Because of my fatigue during the past 4 weeks my thinking has been slowed down.", "preferredTerm": "MFIS - My Thinking Has Been Slowed Down", "submissionValue": "MFIS01-My Thinking Has Been Slowed Down", "synonyms": ["MFIS01-My Thinking Has Been Slowed Down"]}, {"conceptId": "C113987", "definition": "Modified Fatigue Impact Scale - Because of my fatigue during the past 4 weeks I have needed to rest more often or for longer periods.", "preferredTerm": "MFIS - Need to Rest More Often or Longer", "submissionValue": "MFIS01-Need to Rest More Often or Longer", "synonyms": ["MFIS01-Need to Rest More Often or Longer"]}, {"conceptId": "C113972", "definition": "Modified Fatigue Impact Scale - Because of my fatigue during the past 4 weeks I have had to pace myself in my physical activities.", "preferredTerm": "MFIS - Pace Myself in Physical Activities", "submissionValue": "MFIS01-Pace Myself in Physical Activity", "synonyms": ["MFIS01-Pace Myself in Physical Activity"]}, {"conceptId": "C113981", "definition": "Modified Fatigue Impact Scale - Because of my fatigue during the past 4 weeks I have had trouble finishing tasks that require thinking.", "preferredTerm": "MFIS - Have Trouble Finishing Tasks That Require Thinking", "submissionValue": "MFIS01-Trouble Finishing Thinking Tasks", "synonyms": ["MFIS01-Trouble Finishing Thinking Tasks"]}, {"conceptId": "C113976", "definition": "Modified Fatigue Impact Scale - Because of my fatigue during the past 4 weeks I have had trouble maintaining physical effort for long periods.", "preferredTerm": "MFIS - Have Trouble Maintain Physical Effort", "submissionValue": "MFIS01-Trouble Maintain Physical Effort", "synonyms": ["MFIS01-Trouble Maintain Physical Effort"]}]}