{"_links": {"parentPackage": {"href": "/mdr/ct/packages/coact-2015-03-27", "title": "COA Controlled Terminology Package 21 Effective 2015-03-27", "type": "Terminology"}, "priorVersion": {"href": "/mdr/ct/packages/coact-2014-12-19/codelists/C113859", "title": "CDISC Questionnaire Multiple Sclerosis Quality of Life-54 Instrument Test Name Terminology", "type": "Code List"}, "rootItem": {"href": "/mdr/root/ct/coact/codelists/C113859", "title": "Version-agnostic anchor resource for codelist C113859", "type": "Root Value Domain"}, "self": {"href": "/mdr/ct/packages/coact-2015-03-27/codelists/C113859", "title": "CDISC Questionnaire Multiple Sclerosis Quality of Life-54 Instrument Test Name Terminology", "type": "Code List"}}, "conceptId": "C113859", "definition": "Multiple Sclerosis Quality of Life-54 Instrument test name.", "extensible": "false", "name": "QS-Multiple Sclerosis Quality of Life-54 Instrument Test Name", "preferredTerm": "CDISC Questionnaire Multiple Sclerosis Quality of Life-54 Instrument Test Name Terminology", "submissionValue": "MSQOL-54 TEST", "synonyms": ["QS-Multiple Sclerosis Quality of Life-54 Instrument Test Name"], "terms": [{"conceptId": "C114037", "definition": "Multiple Sclerosis Quality of Life-54 Instrument - How much of a problem was each of the following for you during the past 4 weeks: Ability to satisfy sexual partner.", "preferredTerm": "MSQOL-54 - Ability to Satisfy Sexual Partner", "submissionValue": "MSQL1-Ability to Satisfy Sexual Partner", "synonyms": ["MSQL1-Ability to Satisfy Sexual Partner"]}, {"conceptId": "C114020", "definition": "Multiple Sclerosis Quality of Life-54 Instrument - During the past 4 weeks, how much of the time has your physical health or emotional problems interfered with your social activities?", "preferredTerm": "MSQOL-54 - Time Physical Health or Emotional Problem Interfere With Social Activities", "submissionValue": "MSQL1-Amt Time Interfere Social Activity", "synonyms": ["MSQL1-Amt Time Interfere Social Activity"]}, {"conceptId": "C114039", "definition": "Multiple Sclerosis Quality of Life-54 Instrument - During the past 4 weeks, to what extent have problems with your bowel or bladder function interfered with your normal social activities with family, friends, neighbors, or groups?", "preferredTerm": "MSQOL-54 - Bowel or Bladder Function Interfere With Social Activities", "submissionValue": "MSQL1-Bowel/Bladder Interfered Activity", "synonyms": ["MSQL1-Bowel/Bladder Interfered Activity"]}, {"conceptId": "C114042", "definition": "Multiple Sclerosis Quality of Life-54 Instrument - Which best describes how you feel about your life as a whole?", "preferredTerm": "MSQOL-54 - Describe How You Feel About Your Life", "submissionValue": "MSQL1-Describe How Feel About Your Life", "synonyms": ["MSQL1-Describe How Feel About Your Life"]}, {"conceptId": "C114009", "definition": "Multiple Sclerosis Quality of Life-54 Instrument - During the past 4 weeks, how much did pain interfere with your normal work?", "preferredTerm": "MSQOL-54 - Pain Interfere With Normal Work", "submissionValue": "MSQL1-Did Pain Interfere With Your Work", "synonyms": ["MSQL1-Did Pain Interfere With Your Work"]}, {"conceptId": "C114010", "definition": "Multiple Sclerosis Quality of Life-54 Instrument - How much of the time during the past 4 weeks: Did you feel full of pep?", "preferredTerm": "MSQOL-54 - Feel Full of Pep", "submissionValue": "MSQL1-Did You Feel Full of Pep", "synonyms": ["MSQL1-Did You Feel Full of Pep"]}, {"conceptId": "C114019", "definition": "Multiple Sclerosis Quality of Life-54 Instrument - How much of the time during the past 4 weeks: Did you feel rested on waking in the morning?", "preferredTerm": "MSQOL-54 - Feel Rested Waking in the Morning", "submissionValue": "MSQL1-Did You Feel Rested on Waking", "synonyms": ["MSQL1-Did You Feel Rested on Waking"]}, {"conceptId": "C114018", "definition": "Multiple Sclerosis Quality of Life-54 Instrument - How much of the time during the past 4 weeks: Did you feel tired?", "preferredTerm": "MSQOL-54 - Feel Tired", "submissionValue": "MSQL1-Did You Feel Tired", "synonyms": ["MSQL1-Did You Feel Tired"]}, {"conceptId": "C114016", "definition": "Multiple Sclerosis Quality of Life-54 Instrument - How much of the time during the past 4 weeks: Did you feel worn out?", "preferredTerm": "MSQOL-54 - Feel Worn Out", "submissionValue": "MSQL1-Did You Feel Worn Out", "synonyms": ["MSQL1-Did You Feel Worn Out"]}, {"conceptId": "C114014", "definition": "Multiple Sclerosis Quality of Life-54 Instrument - How much of the time during the past 4 weeks: Did you have a lot of energy?", "preferredTerm": "MSQOL-54 - Have a Lot of Energy", "submissionValue": "MSQL1-Did You Have a Lot of Energy", "synonyms": ["MSQL1-Did You Have a Lot of Energy"]}, {"conceptId": "C114034", "definition": "Multiple Sclerosis Quality of Life-54 Instrument - How much of a problem was each of the following for you during the past 4 weeks: Difficulty getting or keeping an erection.", "preferredTerm": "MSQOL-54 - Difficulty Keeping an Erection", "submissionValue": "MSQL1-Difficult Getting/Keeping Erection", "synonyms": ["MSQL1-Difficult Getting/Keeping Erection"]}, {"conceptId": "C114029", "definition": "Multiple Sclerosis Quality of Life-54 Instrument - How much of the time during the past 4 weeks: Have you had difficulty concentrating and thinking?", "preferredTerm": "MSQOL-54 - Difficulty Concentrating and Thinking", "submissionValue": "MSQL1-Difficulty Concentrating/Thinking", "synonyms": ["MSQL1-Difficulty Concentrating/Thinking"]}, {"conceptId": "C114036", "definition": "Multiple Sclerosis Quality of Life-54 Instrument - How much of a problem was each of the following for you during the past 4 weeks: Difficulty having orgasm.", "preferredTerm": "MSQOL-54 - Difficulty Having Orgasm", "submissionValue": "MSQL1-Difficulty Having Orgasm", "synonyms": ["MSQL1-Difficulty Having Orgasm"]}, {"conceptId": "C114025", "definition": "Multiple Sclerosis Quality of Life-54 Instrument - How much of the time during the past 4 weeks: Were you discouraged by your health problems?", "preferredTerm": "MSQOL-54 - Discouraged by Health Problem", "submissionValue": "MSQL1-Discouraged by Health Problems", "synonyms": ["MSQL1-Discouraged by Health Problems"]}, {"conceptId": "C114005", "definition": "Multiple Sclerosis Quality of Life-54 Instrument - During the past 4 weeks, have you had any of the following problems with your work or other regular daily activities as a result of any emotional problems: Accomplished less than you would like.", "preferredTerm": "MSQOL-54 - Emotional Problem Accomplish Less", "submissionValue": "MSQL1-Emotional Problem: Accomplish Less", "synonyms": ["MSQL1-Emotional Problem: Accomplish Less"]}, {"conceptId": "C114004", "definition": "Multiple Sclerosis Quality of Life-54 Instrument - During the past 4 weeks, have you had any of the following problems with your work or other regular daily activities as a result of any emotional problems: Cut down on the amount of time you could spend on work or other activities.", "preferredTerm": "MSQOL-54 - Emotional Problem Cut Down Time on Work", "submissionValue": "MSQL1-Emotional Problem: Cut Work Time", "synonyms": ["MSQL1-Emotional Problem: Cut Work Time"]}, {"conceptId": "C114006", "definition": "Multiple Sclerosis Quality of Life-54 Instrument - During the past 4 weeks, have you had any of the following problems with your work or other regular daily activities as a result of any emotional problems: Didn't do work or other activities as carefully as usual.", "preferredTerm": "MSQOL-54 - Emotional Problem Did Not Do Work Carefully", "submissionValue": "MSQL1-Emotional Problem: Less Careful", "synonyms": ["MSQL1-Emotional Problem: Less Careful"]}, {"conceptId": "C114007", "definition": "Multiple Sclerosis Quality of Life-54 Instrument - During the past 4 weeks, to what extent has your physical health or emotional problems interfered with your normal social activities with family, friends, neighbors, or groups?", "preferredTerm": "MSQOL-54 - Extend Physical Health or Emotional Problem Interfere With Social Activities", "submissionValue": "MSQL1-Extent Interfered Social Activity", "synonyms": ["MSQL1-Extent Interfered Social Activity"]}, {"conceptId": "C114021", "definition": "Multiple Sclerosis Quality of Life-54 Instrument - How TRUE or FALSE is each of the following statements for you: I seem to get sick a little easier than other people.", "preferredTerm": "MSQOL-54 - Get Sick Easier Than Other", "submissionValue": "MSQL1-Get Sick Easier Than Other People", "synonyms": ["MSQL1-Get Sick Easier Than Other People"]}, {"conceptId": "C114011", "definition": "Multiple Sclerosis Quality of Life-54 Instrument - How much of the time during the past 4 weeks: Have you been a very nervous person?", "preferredTerm": "MSQOL-54 - Been a Nervous Person", "submissionValue": "MSQL1-Have Been a Very Nervous Person", "synonyms": ["MSQL1-Have Been a Very Nervous Person"]}, {"conceptId": "C114015", "definition": "Multiple Sclerosis Quality of Life-54 Instrument - How much of the time during the past 4 weeks: Have you felt downhearted and blue?", "preferredTerm": "MSQOL-54 - Felt Downhearted and Blue", "submissionValue": "MSQL1-Have Felt Downhearted and Blue", "synonyms": ["MSQL1-Have Felt Downhearted and Blue"]}, {"conceptId": "C114012", "definition": "Multiple Sclerosis Quality of Life-54 Instrument - How much of the time during the past 4 weeks: Have you felt so down in the dumps that nothing could cheer you up?", "preferredTerm": "MSQOL-54 - Felt So Down Nothing Could Cheer You Up", "submissionValue": "MSQL1-Have Felt So Down in the Dumps", "synonyms": ["MSQL1-Have Felt So Down in the Dumps"]}, {"conceptId": "C114031", "definition": "Multiple Sclerosis Quality of Life-54 Instrument - How much of the time during the past 4 weeks: Have you had trouble with your memory?", "preferredTerm": "MSQOL-54 - Trouble With Memory", "submissionValue": "MSQL1-Have Had Trouble With Your Memory", "synonyms": ["MSQL1-Have Had Trouble With Your Memory"]}, {"conceptId": "C114017", "definition": "Multiple Sclerosis Quality of Life-54 Instrument - How much of the time during the past 4 weeks: Have you been a happy person?", "preferredTerm": "MSQOL-54 - Been a Happy Person", "submissionValue": "MSQL1-Have You Been a Happy Person", "synonyms": ["MSQL1-Have You Been a Happy Person"]}, {"conceptId": "C114013", "definition": "Multiple Sclerosis Quality of Life-54 Instrument - How much of the time during the past 4 weeks: Have you felt calm and peaceful?", "preferredTerm": "MSQOL-54 - Felt Calm and Peaceful", "submissionValue": "MSQL1-Have You Felt Calm and Peaceful", "synonyms": ["MSQL1-Have You Felt Calm and Peaceful"]}, {"conceptId": "C113999", "definition": "Multiple Sclerosis Quality of Life-54 Instrument - Does your health limit you in these activities: Bathing and dressing yourself.", "preferredTerm": "MSQOL-54 - Health Limit Bathing and Dressing Yourself", "submissionValue": "MSQL1-Health Limit Bathing/Dressing Self", "synonyms": ["MSQL1-Health Limit Bathing/Dressing Self"]}, {"conceptId": "C113995", "definition": "Multiple Sclerosis Quality of Life-54 Instrument - Does your health limit you in these activities: Bending, kneeling, or stooping.", "preferredTerm": "MSQOL-54 - Health Limit Bending, Kneeling or Stooping", "submissionValue": "MSQL1-Health Limit Bending or Kneeling", "synonyms": ["MSQL1-Health Limit Bending or Kneeling"]}, {"conceptId": "C113992", "definition": "Multiple Sclerosis Quality of Life-54 Instrument - Does your health limit you in these activities: Lifting or carrying groceries.", "preferredTerm": "MSQOL-54 - Health Limit Lifting or Carrying Groceries", "submissionValue": "MSQL1-Health Limit Carrying Groceries", "synonyms": ["MSQL1-Health Limit Carrying Groceries"]}, {"conceptId": "C113994", "definition": "Multiple Sclerosis Quality of Life-54 Instrument - Does your health limit you in these activities: Climbing one flight of stairs.", "preferredTerm": "MSQOL-54 - Health Limit Climbing One Stair", "submissionValue": "MSQL1-Health Limit Climb One Flight", "synonyms": ["MSQL1-Health Limit Climb One Flight"]}, {"conceptId": "C113993", "definition": "Multiple Sclerosis Quality of Life-54 Instrument - Does your health limit you in these activities: Climbing several flights of stairs.", "preferredTerm": "MSQOL-54 - Health Limit Climbing Several Stairs", "submissionValue": "MSQL1-Health Limit Climb Several Flights", "synonyms": ["MSQL1-Health Limit Climb Several Flights"]}, {"conceptId": "C113991", "definition": "Multiple Sclerosis Quality of Life-54 Instrument - Does your health limit you in these activities: Moderate activities, such as moving a table, pushing a vacuum cleaner, bowling, or playing golf.", "preferredTerm": "MSQOL-54 - Health Limit Moderate Activities", "submissionValue": "MSQL1-Health Limit Moderate Activities", "synonyms": ["MSQL1-Health Limit Moderate Activities"]}, {"conceptId": "C113990", "definition": "Multiple Sclerosis Quality of Life-54 Instrument - Does your health limit you in these activities: Vigorous activities, such as running, lifting heavy objects, participating in strenuous sports.", "preferredTerm": "MSQOL-54 - Health Limit Vigorous Activities", "submissionValue": "MSQL1-Health Limit Vigorous Activities", "synonyms": ["MSQL1-Health Limit Vigorous Activities"]}, {"conceptId": "C113996", "definition": "Multiple Sclerosis Quality of Life-54 Instrument - Does your health limit you in these activities: Walking more than a mile.", "preferredTerm": "MSQOL-54 - Health Limit Walking More than A Mile", "submissionValue": "MSQL1-Health Limit Walk More Than Mile", "synonyms": ["MSQL1-Health Limit Walk More Than Mile"]}, {"conceptId": "C113998", "definition": "Multiple Sclerosis Quality of Life-54 Instrument - Does your health limit you in these activities: Walking one block.", "preferredTerm": "MSQOL-54 - Health Limit Walking One Block", "submissionValue": "MSQL1-Health Limit Walk One Block", "synonyms": ["MSQL1-Health Limit Walk One Block"]}, {"conceptId": "C113997", "definition": "Multiple Sclerosis Quality of Life-54 Instrument - Does your health limit you in these activities: Walking several blocks.", "preferredTerm": "MSQOL-54 - Health Limit Walking Several Blocks", "submissionValue": "MSQL1-Health Limit Walk Several Blocks", "synonyms": ["MSQL1-Health Limit Walk Several Blocks"]}, {"conceptId": "C113989", "definition": "Multiple Sclerosis Quality of Life-54 Instrument - Compared to one year ago, how would you rate your health in general now?", "preferredTerm": "MSQOL-54 - Health Now Compared to One Year Ago", "submissionValue": "MSQL1-Health Now Compared to 1 Year Ago", "synonyms": ["MSQL1-Health Now Compared to 1 Year Ago"]}, {"conceptId": "C114008", "definition": "Multiple Sclerosis Quality of Life-54 Instrument - How much bodily pain have you had during the past 4 weeks?", "preferredTerm": "MSQOL-54 - Bodily Pain", "submissionValue": "MSQL1-How Much Bodily Pain Have You Had", "synonyms": ["MSQL1-How Much Bodily Pain Have You Had"]}, {"conceptId": "C114022", "definition": "Multiple Sclerosis Quality of Life-54 Instrument - How TRUE or FALSE is each of the following statements for you: I am as healthy as anybody I know.", "preferredTerm": "MSQOL-54 - As Healthy as Anybody", "submissionValue": "MSQL1-I Am as Healthy as Anybody I Know", "synonyms": ["MSQL1-I Am as Healthy as Anybody I Know"]}, {"conceptId": "C114023", "definition": "Multiple Sclerosis Quality of Life-54 Instrument - How TRUE or FALSE is each of the following statements for you: I expect my health to get worse.", "preferredTerm": "MSQOL-54 - Expect Health to Get Worse", "submissionValue": "MSQL1-I Expect My Health to Get Worse", "synonyms": ["MSQL1-I Expect My Health to Get Worse"]}, {"conceptId": "C114035", "definition": "Multiple Sclerosis Quality of Life-54 Instrument - How much of a problem was each of the following for you during the past 4 weeks: Inadequate lubrication.", "preferredTerm": "MSQOL-54 - Inadequate Lubrication", "submissionValue": "MSQL1-Inadequate Lubrication", "synonyms": ["MSQL1-Inadequate Lubrication"]}, {"conceptId": "C114033", "definition": "Multiple Sclerosis Quality of Life-54 Instrument - How much of a problem was each of the following for you during the past 4 weeks: Lack of sexual interest.", "preferredTerm": "MSQOL-54 - Lack of Sexual Interest", "submissionValue": "MSQL1-Lack of Sexual Interest", "synonyms": ["MSQL1-Lack of Sexual Interest"]}, {"conceptId": "C114024", "definition": "Multiple Sclerosis Quality of Life-54 Instrument - How TRUE or FALSE is each of the following statements for you: My health is excellent.", "preferredTerm": "MSQOL-54 - Health is Excellent", "submissionValue": "MSQL1-My Health Is Excellent", "synonyms": ["MSQL1-My Health Is Excellent"]}, {"conceptId": "C114032", "definition": "Multiple Sclerosis Quality of Life-54 Instrument - How much of the time during the past 4 weeks: Have others, such as family members or friends, noticed that you have trouble with your memory or problems with your concentration?", "preferredTerm": "MSQOL-54 - Others Notice Your Problems With Memory or Concentration", "submissionValue": "MSQL1-Others Notice Your Memory Trouble", "synonyms": ["MSQL1-Others Notice Your Memory Trouble"]}, {"conceptId": "C114040", "definition": "Multiple Sclerosis Quality of Life-54 Instrument - During the past 4 weeks, how much did pain interfere with your enjoyment of life?", "preferredTerm": "MSQOL-54 - Pain Interfere Enjoyment of Life", "submissionValue": "MSQL1-Pain Interfere Enjoyment of Life", "synonyms": ["MSQL1-Pain Interfere Enjoyment of Life"]}, {"conceptId": "C114001", "definition": "Multiple Sclerosis Quality of Life-54 Instrument - During the past 4 weeks, have you had any of the following problems with your work or other regular daily activities as a result of your physical health: Accomplished less than you would like.", "preferredTerm": "MSQOL-54 - Physical Health Accomplish Less", "submissionValue": "MSQL1-Phys Health: Accomplish Less", "synonyms": ["MSQL1-Phys Health: Accomplish Less"]}, {"conceptId": "C114000", "definition": "Multiple Sclerosis Quality of Life-54 Instrument - During the past 4 weeks, have you had any of the following problems with your work or other regular daily activities as a result of your physical health: Cut down on the amount of time you could spend on work or other activities.", "preferredTerm": "MSQOL-54 - Physical Health Cut Down Time on Work", "submissionValue": "MSQL1-Phys Health: Cut Work Time", "synonyms": ["MSQL1-Phys Health: Cut Work Time"]}, {"conceptId": "C114003", "definition": "Multiple Sclerosis Quality of Life-54 Instrument - During the past 4 weeks, have you had any of the following problems with your work or other regular daily activities as a result of your physical health: Had difficulty performing the work or other activities.", "preferredTerm": "MSQOL-54 - Physical Health Difficulty Perform Work", "submissionValue": "MSQL1-Phys Health: Difficulty Performing", "synonyms": ["MSQL1-Phys Health: Difficulty Performing"]}, {"conceptId": "C114002", "definition": "Multiple Sclerosis Quality of Life-54 Instrument - During the past 4 weeks, have you had any of the following problems with your work or other regular daily activities as a result of your physical health: Were limited in the kind of work or other activities.", "preferredTerm": "MSQOL-54 - Physical Health Limited in the Kind of Work", "submissionValue": "MSQL1-Phys Health: Limit Kind of Work", "synonyms": ["MSQL1-Phys Health: Limit Kind of Work"]}, {"conceptId": "C114041", "definition": "Multiple Sclerosis Quality of Life-54 Instrument - Overall, how would you rate your own quality-of-life?", "preferredTerm": "MSQOL-54 - Rate Your Own Quality of Life", "submissionValue": "MSQL1-Rate Your Own Quality-of-Life", "synonyms": ["MSQL1-Rate Your Own Quality-of-Life"]}, {"conceptId": "C114038", "definition": "Multiple Sclerosis Quality of Life-54 Instrument - Overall, how satisfied were you with your sexual function during the past 4 weeks?", "preferredTerm": "MSQOL-54 - Satisfied With Sexual Function", "submissionValue": "MSQL1-Satisfied With Sexual Function", "synonyms": ["MSQL1-Satisfied With Sexual Function"]}, {"conceptId": "C114030", "definition": "Multiple Sclerosis Quality of Life-54 Instrument - How much of the time during the past 4 weeks: Did you have trouble keeping your attention on an activity for long?", "preferredTerm": "MSQOL-54 - Trouble Keep Attention for Long", "submissionValue": "MSQL1-Trouble Keep Attention for Long", "synonyms": ["MSQL1-Trouble Keep Attention for Long"]}, {"conceptId": "C114027", "definition": "Multiple Sclerosis Quality of Life-54 Instrument - How much of the time during the past 4 weeks: Was your health a worry in your life?", "preferredTerm": "MSQOL-54 - Health a Worry in Life", "submissionValue": "MSQL1-Was Health a Worry in Your Life", "synonyms": ["MSQL1-Was Health a Worry in Your Life"]}, {"conceptId": "C114028", "definition": "Multiple Sclerosis Quality of Life-54 Instrument - How much of the time during the past 4 weeks: Did you feel weighed down by your health problems?", "preferredTerm": "MSQOL-54 - Feel Weighed Down by Health Problem", "submissionValue": "MSQL1-Weighed Down by Health Problems", "synonyms": ["MSQL1-Weighed Down by Health Problems"]}, {"conceptId": "C114026", "definition": "Multiple Sclerosis Quality of Life-54 Instrument - How much of the time during the past 4 weeks: Were you frustrated about your health?", "preferredTerm": "MSQOL-54 - Frustrated With Health", "submissionValue": "MSQL1-Were Frustrated About Your Health", "synonyms": ["MSQL1-Were Frustrated About Your Health"]}, {"conceptId": "C113988", "definition": "Multiple Sclerosis Quality of Life-54 Instrument - In general, would you say your health is:", "preferredTerm": "MSQOL-54 - Would You Say Your Health Is", "submissionValue": "MSQL1-Would You Say Your Health Is", "synonyms": ["MSQL1-Would You Say Your Health Is"]}]}