{"_links": {"parentPackage": {"href": "/mdr/ct/packages/coact-2015-03-27", "title": "COA Controlled Terminology Package 21 Effective 2015-03-27", "type": "Terminology"}, "priorVersion": {"href": "/mdr/ct/packages/coact-2014-12-19/codelists/C118971", "title": "CDISC Clinical Classification Category Terminology", "type": "Code List"}, "rootItem": {"href": "/mdr/root/ct/coact/codelists/C118971", "title": "Version-agnostic anchor resource for codelist C118971", "type": "Root Value Domain"}, "self": {"href": "/mdr/ct/packages/coact-2015-03-27/codelists/C118971", "title": "CDISC Clinical Classification Category Terminology", "type": "Code List"}}, "conceptId": "C118971", "definition": "A grouping of observations within the Clinical Classification domain.", "extensible": "true", "name": "Category of Clinical Classification", "preferredTerm": "CDISC Clinical Classification Category Terminology", "submissionValue": "CCCAT", "synonyms": ["Category of Clinical Classification"], "terms": [{"conceptId": "C121005", "definition": "Acute Physiology and Chronic Health Evaluation II (APACHE II) (Knaus WA, Draper EA, Wagner DP, Zimmerman JE. APACHE II: a severity of disease classification system. Critical Care Medicine 1985; 13(10):818-29).", "preferredTerm": "Acute Physiology and Chronic Health Evaluation II Clinical Classification", "submissionValue": "APACHE II", "synonyms": ["APCH1"]}, {"conceptId": "C121006", "definition": "The Body-Mass Index, Airflow Obstruction, Dyspnea, and Exercise Capacity Index (BODE Index) (Bartolome R. Celli, M.D., Claudia G. Cote, M.D., Jose M. Marin, M.D., Ciro Casanova, M.D., Maria Montes de Oca, M.D., Reina A. Mendez, M.D., Victor Pinto Plata, M.D., and Howard J. Cabral, Ph.D.; N Engl J Med 2004;350:1005-12).", "preferredTerm": "The Body-Mass Index, Airflow Obstruction, Dyspnea, and Exercise Capacity Index Clinical Classification", "submissionValue": "BODE INDEX", "synonyms": ["BODE01"]}, {"conceptId": "C121007", "definition": "Child-Pugh Classification (Guidance for Industry Pharmacokinetics in Patients with Impaired Hepatic Function: Study Design, Data Analysis, and Impact on Dosing and Labeling. U.S. Department of Health and Human Services; Food and Drug Administration; Center for Drug Evaluation and Research (CDER); Center for Biologics Evaluation and Research (CBER). May 2003, Clinical Pharmacology. http://www.fda.gov/downloads/Drugs/GuidanceComplianceRegulatoryInformation/Guidances/UCM072123.pdf; http://www.halaven.com/sites/default/files/ChildPugh_FlashCard.pdf).", "preferredTerm": "Child-Pugh Clinical Classification", "submissionValue": "CHILD-PUGH CLASSIFICATION", "synonyms": ["CPS01"]}, {"conceptId": "C119105", "definition": "Coronary Artery Dissection NHLBI Grade (Coronary Artery angiographic changes after PTCA: Manual of Operations NHBLI PTCA Registry 1985-6:9).", "preferredTerm": "Coronary Artery Dissection NHLBI Grade Clinical Classification", "submissionValue": "CORONARY ARTERY DISSECTION NHLBI GRADE", "synonyms": ["CADG01"]}, {"conceptId": "C119104", "definition": "Coronary Thrombus TIMI Grade (TIMI Definitions for Commonly Used Terms in Clinical Trials. Available at http://www.timi.org/wp-content/uploads/2010/10/TIMI-Definitions.pdf. Accessed November 30, 2013).", "preferredTerm": "Coronary Thrombus TIMI Grade Clinical Classification", "submissionValue": "CORONARY THROMBUS TIMI GRADE", "synonyms": ["TIMG01"]}, {"conceptId": "C121008", "definition": "Model for End Stage Liver Disease (MELD) (Malinchoc M, Kamath PS, Gordon FD, Peine CJ, Rank J, ter Borg PC (April 2000). A model to predict poor survival in patients undergoing transjugular intrahepatic portosystemic shunts. Hepatology 31 (4): 864-71).", "preferredTerm": "Model for End Stage Liver Disease Clinical Classification", "submissionValue": "MELD", "synonyms": ["MELD01"]}, {"conceptId": "C121009", "definition": "Negative Symptom Assessment-16 (NSA-16) (Version 2.0, Copyright 2006, Larry Alphs, MD, PhD, All Right Reserved).", "preferredTerm": "Negative Symptom Assessment-16 Clinical Classification", "submissionValue": "NSA-16", "synonyms": ["NSA01"]}, {"conceptId": "C119107", "definition": "Stent Thrombosis Coronary ARC Grade (Cutlip DE, Windecker S, Mehran R, et al. Clinical End Points in Coronary Stent Trials : A Case for Standardized Definitions. Circulation. 2007;115:2344-2351).", "preferredTerm": "Stent Thrombosis Coronary ARC Grade Clinical Classification", "submissionValue": "STENT THROMBOSIS CORONARY ARC GRADE", "synonyms": ["STCG01"]}, {"conceptId": "C119106", "definition": "Stent Thrombosis Coronary ARC Timing (Cutlip DE, Windecker S, Mehran R, et al. Clinical End Points in Coronary Stent Trials : A Case for Standardized Definitions. Circulation. 2007;115:2344-2351).", "preferredTerm": "Stent Thrombosis Coronary ARC Timing Clinical Classification", "submissionValue": "STENT THROMBOSIS CORONARY ARC TIMING", "synonyms": ["STCT01"]}]}