{"_links": {"parentPackage": {"href": "/mdr/ct/packages/coact-2015-03-27", "title": "COA Controlled Terminology Package 21 Effective 2015-03-27", "type": "Terminology"}, "priorVersion": {"href": "/mdr/ct/packages/coact-2014-12-19/codelists/C119077", "title": "CDISC Clinical Classification ARC STC Timing Test Name Terminology", "type": "Code List"}, "rootItem": {"href": "/mdr/root/ct/coact/codelists/C119077", "title": "Version-agnostic anchor resource for codelist C119077", "type": "Root Value Domain"}, "self": {"href": "/mdr/ct/packages/coact-2015-03-27/codelists/C119077", "title": "CDISC Clinical Classification ARC STC Timing Test Name Terminology", "type": "Code List"}}, "conceptId": "C119077", "definition": "Stent Thrombosis Coronary ARC Timing test name.", "extensible": "false", "name": "CC-Stent Thrombosis Coronary ARC Timing Clinical Classification Test Name", "preferredTerm": "CDISC Clinical Classification ARC STC Timing Test Name Terminology", "submissionValue": "ARC STC Timing TEST", "synonyms": ["CC-Stent Thrombosis Coronary ARC Timing Clinical Classification Test Name"], "terms": [{"conceptId": "C119197", "definition": "Stent Thrombosis Coronary ARC Timing - Categorization of the timing of coronary stent thrombosis occurrence per the classification schema described by the Academic Research Consortium.", "preferredTerm": "ARC STC Timing - Stent Thrombosis Coronary ARC Timing", "submissionValue": "STCT01-STC ARC Timing", "synonyms": ["STCT01-STC ARC Timing"]}]}