{"_links": {"parentPackage": {"href": "/mdr/ct/packages/coact-2015-03-27", "title": "COA Controlled Terminology Package 21 Effective 2015-03-27", "type": "Terminology"}, "priorVersion": {"href": "/mdr/ct/packages/coact-2014-12-19/codelists/C119073", "title": "CDISC Clinical Classification TIMI Thrombus Grade Test Name Terminology", "type": "Code List"}, "rootItem": {"href": "/mdr/root/ct/coact/codelists/C119073", "title": "Version-agnostic anchor resource for codelist C119073", "type": "Root Value Domain"}, "self": {"href": "/mdr/ct/packages/coact-2015-03-27/codelists/C119073", "title": "CDISC Clinical Classification TIMI Thrombus Grade Test Name Terminology", "type": "Code List"}}, "conceptId": "C119073", "definition": "Coronary Thrombus TIMI Grade test name.", "extensible": "false", "name": "CC-Coronary Thrombus TIMI Grade Clinical Classificationn Test Name", "preferredTerm": "CDISC Clinical Classification TIMI Thrombus Grade Test Name Terminology", "submissionValue": "TIMI Thrombus Grade TEST", "synonyms": ["CC-Coronary Thrombus TIMI Grade Clinical Classificationn Test Name"], "terms": [{"conceptId": "C119195", "definition": "Coronary Thrombus TIMI Grade - Grade corresponding to thrombus development as defined in the grading system by the Thrombolysis in the Myocardial Infarction Group.", "preferredTerm": "TIMI Thrombus Grade - Coronary Thrombus TIMI Grade", "submissionValue": "TIMG01-Coronary Thrombus TIMI Grade", "synonyms": ["TIMG01-Coronary Thrombus TIMI Grade"]}]}