{"_links": {"parentPackage": {"href": "/mdr/ct/packages/coact-2015-03-27", "title": "COA Controlled Terminology Package 21 Effective 2015-03-27", "type": "Terminology"}, "priorVersion": {"href": "/mdr/ct/packages/coact-2014-12-19/codelists/C119063", "title": "CDISC Questionnaire CCQ 24 Hour Version Test Name Terminology", "type": "Code List"}, "rootItem": {"href": "/mdr/root/ct/coact/codelists/C119063", "title": "Version-agnostic anchor resource for codelist C119063", "type": "Root Value Domain"}, "self": {"href": "/mdr/ct/packages/coact-2015-03-27/codelists/C119063", "title": "CDISC Questionnaire CCQ 24 Hour Version Test Name Terminology", "type": "Code List"}}, "conceptId": "C119063", "definition": "Clinical COPD Questionnaire 24 Hour Version test name.", "extensible": "false", "name": "QS-Clinical COPD Questionnaire 24 Hour Version Test Name", "preferredTerm": "CDISC Questionnaire CCQ 24 Hour Version Test Name Terminology", "submissionValue": "CCQ 24 Hour Version TEST", "synonyms": ["QS-Clinical COPD Questionnaire 24 Hour Version Test Name"], "terms": [{"conceptId": "C119130", "definition": "Clinical COPD Questionnaire 24 Hour Version - On average, during the past 24 hours, how limited were you in these activities because of your breathing problems: Daily activities at home?", "preferredTerm": "CCQ 24 Hour Version - Breathing Problems Limit Daily Activity", "submissionValue": "CCQ01-Breathing Limit Daily Activity", "synonyms": ["CCQ01-Breathing Limit Daily Activity"]}, {"conceptId": "C119129", "definition": "Clinical COPD Questionnaire 24 Hour Version - On average, during the past 24 hours, how limited were you in these activities because of your breathing problems: Moderate physical activities?", "preferredTerm": "CCQ 24 Hour Version - Breathing Problems Limit Moderate Activity", "submissionValue": "CCQ01-Breathing Limit Moderate Activity", "synonyms": ["CCQ01-Breathing Limit Moderate Activity"]}, {"conceptId": "C119131", "definition": "Clinical COPD Questionnaire 24 Hour Version - On average, during the past 24 hours, how limited were you in these activities because of your breathing problems: Social activities?", "preferredTerm": "CCQ 24 Hour Version - Breathing Problems Limit Social Activity", "submissionValue": "CCQ01-Breathing Limit Social Activity", "synonyms": ["CCQ01-Breathing Limit Social Activity"]}, {"conceptId": "C119128", "definition": "Clinical COPD Questionnaire 24 Hour Version - On average, during the past 24 hours, how limited were you in these activities because of your breathing problems: Strenuous physical activities?", "preferredTerm": "CCQ 24 Hour Version - Breathing Problems Limit Strenuous Activity", "submissionValue": "CCQ01-Breathing Limit Strenuous Activity", "synonyms": ["CCQ01-Breathing Limit Strenuous Activity"]}, {"conceptId": "C119124", "definition": "Clinical COPD Questionnaire 24 Hour Version - On average, during the past 24 hours, how often did you feel: Concerned about getting a cold or your breathing getting worse?", "preferredTerm": "CCQ 24 Hour Version - Concern About Breathing Get Worse", "submissionValue": "CCQ01-Concern About Breathing Get Worse", "synonyms": ["CCQ01-Concern About Breathing Get Worse"]}, {"conceptId": "C119126", "definition": "Clinical COPD Questionnaire 24 Hour Version - In general, during the past 24 hours, how much of the time: Did you cough?", "preferredTerm": "CCQ 24 Hour Version - Did You Cough", "submissionValue": "CCQ01-Cough", "synonyms": ["CCQ01-Cough"]}, {"conceptId": "C119125", "definition": "Clinical COPD Questionnaire 24 Hour Version - On average, during the past 24 hours, how often did you feel: Depressed because of your breathing problems?", "preferredTerm": "CCQ 24 Hour Version - Depressed Because of Breathing Problem", "submissionValue": "CCQ01-Depressed for Breathing Problem", "synonyms": ["CCQ01-Depressed for Breathing Problem"]}, {"conceptId": "C119127", "definition": "Clinical COPD Questionnaire 24 Hour Version - In general, during the past 24 hours, how much of the time: Did you produce sputum or phlegm?", "preferredTerm": "CCQ 24 Hour Version - Produce Sputum or Phlegm", "submissionValue": "CCQ01-Produce Sputum or Phlegm", "synonyms": ["CCQ01-Produce Sputum or Phlegm"]}, {"conceptId": "C119123", "definition": "Clinical COPD Questionnaire 24 Hour Version - On average, during the past 24 hours, how often did you feel: Short of breath while doing physical activities?", "preferredTerm": "CCQ 24 Hour Version - Short of Breath Doing Physical Activity", "submissionValue": "CCQ01-Short of Breath Physical Activity", "synonyms": ["CCQ01-Short of Breath Physical Activity"]}, {"conceptId": "C119122", "definition": "Clinical COPD Questionnaire 24 Hour Version - On average, during the past 24 hours, how often did you feel: Short of breath while at rest?", "preferredTerm": "CCQ 24 Hour Version - Short of Breath at Rest", "submissionValue": "CCQ01-Short of Breath at Rest", "synonyms": ["CCQ01-Short of Breath at Rest"]}]}