{"_links": {"parentPackage": {"href": "/mdr/ct/packages/coact-2015-03-27", "title": "COA Controlled Terminology Package 21 Effective 2015-03-27", "type": "Terminology"}, "priorVersion": {"href": "/mdr/ct/packages/coact-2014-12-19/codelists/C119080", "title": "CDISC Clinical Classification ARC STC Grade Test Code Terminology", "type": "Code List"}, "rootItem": {"href": "/mdr/root/ct/coact/codelists/C119080", "title": "Version-agnostic anchor resource for codelist C119080", "type": "Root Value Domain"}, "self": {"href": "/mdr/ct/packages/coact-2015-03-27/codelists/C119080", "title": "CDISC Clinical Classification ARC STC Grade Test Code Terminology", "type": "Code List"}}, "conceptId": "C119080", "definition": "Stent Thrombosis Coronary ARC Grade test code.", "extensible": "false", "name": "CC-Stent Thrombosis Coronary ARC Grade Clinical Classification Test Code", "preferredTerm": "CDISC Clinical Classification ARC STC Grade Test Code Terminology", "submissionValue": "ARC STC Grade TESTCD", "synonyms": ["CC-Stent Thrombosis Coronary ARC Grade Clinical Classification Test Code"], "terms": [{"conceptId": "C119198", "definition": "Stent Thrombosis Coronary ARC Grade - A grading system to describe the coronary stent thrombosis per the classification schema described by the Academic Research Consortium.", "preferredTerm": "ARC STC Grade - Stent Thrombosis Coronary ARC Grade", "submissionValue": "STCG0101", "synonyms": ["STCG01-STC ARC Grade"]}]}