{"_links": {"parentPackage": {"href": "/mdr/ct/packages/coact-2015-03-27", "title": "COA Controlled Terminology Package 21 Effective 2015-03-27", "type": "Terminology"}, "rootItem": {"href": "/mdr/root/ct/coact/codelists/C120979", "title": "Version-agnostic anchor resource for codelist C120979", "type": "Root Value Domain"}, "self": {"href": "/mdr/ct/packages/coact-2015-03-27/codelists/C120979", "title": "CDISC Questionnaire CRQ-SAS First Administration Version Test Code Terminology", "type": "Code List"}}, "conceptId": "C120979", "definition": "Chronic Respiratory Questionnaire Self-Administered Standardized Format First Administration Version test code.", "extensible": "false", "name": "QS-Chronic Respiratory Questionnaire Self-Administered Standardized Format First Administration Version Test Code", "preferredTerm": "CDISC Questionnaire CRQ-SAS First Administration Version Test Code Terminology", "submissionValue": "CRQ-SAS FIRST ADMINISTRATION VERSION TESTCD", "synonyms": ["QS-Chronic Respiratory Questionnaire Self-Administered Standardized Format First Administration Version Test Code"], "terms": [{"conceptId": "C121010", "definition": "Chronic Respiratory Questionnaire Self-Administered Standardized Format (CRQ-SAS) First Administration Version - Feeling emotional such as angry or upset.", "preferredTerm": "CRQ-SAS First Administration Version - Feeling Emotional", "submissionValue": "CRQ0101", "synonyms": ["CRQ01-Feeling Emotional"]}, {"conceptId": "C121011", "definition": "Chronic Respiratory Questionnaire Self-Administered Standardized Format (CRQ-SAS) First Administration Version - Taking care of your basic needs.", "preferredTerm": "CRQ-SAS First Administration Version - Take Care of Basic Needs", "submissionValue": "CRQ0102", "synonyms": ["CRQ01-Take Care of Basic Needs"]}, {"conceptId": "C121012", "definition": "Chronic Respiratory Questionnaire Self-Administered Standardized Format (CRQ-SAS) First Administration Version - Walking.", "preferredTerm": "CRQ-SAS First Administration Version - Walking", "submissionValue": "CRQ0103", "synonyms": ["CRQ01-Walking"]}, {"conceptId": "C121013", "definition": "Chronic Respiratory Questionnaire Self-Administered Standardized Format (CRQ-SAS) First Administration Version - Performing chores.", "preferredTerm": "CRQ-SAS First Administration Version - Performing Chores", "submissionValue": "CRQ0104", "synonyms": ["CRQ01-Performing Chores"]}, {"conceptId": "C121014", "definition": "Chronic Respiratory Questionnaire Self-Administered Standardized Format (CRQ-SAS) First Administration Version - Participating in social activities.", "preferredTerm": "CRQ-SAS First Administration Version - Participate in Social Activities", "submissionValue": "CRQ0105", "synonyms": ["CRQ01-Participate in Social Activities"]}, {"conceptId": "C121015", "definition": "Chronic Respiratory Questionnaire Self-Administered Standardized Format (CRQ-SAS) First Administration Version - In general, how much of the time during the last 2 weeks have you felt frustrated or impatient?", "preferredTerm": "CRQ-SAS First Administration Version - Felt Frustrated or Impatient", "submissionValue": "CRQ0106", "synonyms": ["CRQ01-Felt Frustrated or Impatient"]}, {"conceptId": "C121016", "definition": "Chronic Respiratory Questionnaire Self-Administered Standardized Format (CRQ-SAS) First Administration Version - How often during the last 2 weeks did you have a feeling of fear or panic when you had difficulty getting your breath?", "preferredTerm": "CRQ-SAS First Administration Version - Feeling of Fear or Panic", "submissionValue": "CRQ0107", "synonyms": ["CRQ01-Feeling of Fear or Panic"]}, {"conceptId": "C121017", "definition": "Chronic Respiratory Questionnaire Self-Administered Standardized Format (CRQ-SAS) First Administration Version - How about fatigue? How tired have you felt over the last 2 weeks?", "preferredTerm": "CRQ-SAS First Administration Version - Fatigue", "submissionValue": "CRQ0108", "synonyms": ["CRQ01-Fatigue"]}, {"conceptId": "C121018", "definition": "Chronic Respiratory Questionnaire Self-Administered Standardized Format (CRQ-SAS) First Administration Version - How often during the last 2 weeks have you felt embarrassed by your coughing or heavy breathing?", "preferredTerm": "CRQ-SAS First Administration Version - Embarrassed by Coughing", "submissionValue": "CRQ0109", "synonyms": ["CRQ01-Embarrassed by Coughing"]}, {"conceptId": "C121019", "definition": "Chronic Respiratory Questionnaire Self-Administered Standardized Format (CRQ-SAS) First Administration Version - In the last 2 weeks, how much of the time did you feel very confident and sure that you could deal with your illness?", "preferredTerm": "CRQ-SAS First Administration Version - Feel Confident to Deal With Illness", "submissionValue": "CRQ0110", "synonyms": ["CRQ01-Confident to Deal With Illness"]}, {"conceptId": "C121020", "definition": "Chronic Respiratory Questionnaire Self-Administered Standardized Format (CRQ-SAS) First Administration Version - How much energy have you had in the last 2 weeks?", "preferredTerm": "CRQ-SAS First Administration Version - Energy", "submissionValue": "CRQ0111", "synonyms": ["CRQ01-Energy"]}, {"conceptId": "C121021", "definition": "Chronic Respiratory Questionnaire Self-Administered Standardized Format (CRQ-SAS) First Administration Version - In general, how much of the time did you feel upset, worried, or depressed during the last 2 weeks?", "preferredTerm": "CRQ-SAS First Administration Version - Feel Upset, Worried or Depressed", "submissionValue": "CRQ0112", "synonyms": ["CRQ01-Feel Upset, Worried or Depressed"]}, {"conceptId": "C121022", "definition": "Chronic Respiratory Questionnaire Self-Administered Standardized Format (CRQ-SAS) First Administration Version - How often during the last 2 weeks did you feel you had complete control of your breathing problems?", "preferredTerm": "CRQ-SAS First Administration Version - Had Control of Breathing Problems", "submissionValue": "CRQ0113", "synonyms": ["CRQ01-Control of Breathing Problems"]}, {"conceptId": "C121023", "definition": "Chronic Respiratory Questionnaire Self-Administered Standardized Format (CRQ-SAS) First Administration Version - How much of the time during the last 2 weeks did you feel relaxed and free of tension?", "preferredTerm": "CRQ-SAS First Administration Version - Feel Relaxed and Free of Tension", "submissionValue": "CRQ0114", "synonyms": ["CRQ01-Feel Relaxed and Free of Tension"]}, {"conceptId": "C121024", "definition": "Chronic Respiratory Questionnaire Self-Administered Standardized Format (CRQ-SAS) First Administration Version - How often during the last 2 weeks have you felt low in energy?", "preferredTerm": "CRQ-SAS First Administration Version - Felt Low in Energy", "submissionValue": "CRQ0115", "synonyms": ["CRQ01-Felt Low in Energy"]}, {"conceptId": "C121025", "definition": "Chronic Respiratory Questionnaire Self-Administered Standardized Format (CRQ-SAS) First Administration Version - In general, how often during the last 2 weeks have you felt discouraged or down in the dumps?", "preferredTerm": "CRQ-SAS First Administration Version - Felt Discouraged or Down", "submissionValue": "CRQ0116", "synonyms": ["CRQ01-Felt Discouraged or Down"]}, {"conceptId": "C121026", "definition": "Chronic Respiratory Questionnaire Self-Administered Standardized Format (CRQ-SAS) First Administration Version - How often during the last 2 weeks have you felt worn out or sluggish?", "preferredTerm": "CRQ-SAS First Administration Version - Felt Worn Out or Sluggish", "submissionValue": "CRQ0117", "synonyms": ["CRQ01-Felt Worn Out or Sluggish"]}, {"conceptId": "C121027", "definition": "Chronic Respiratory Questionnaire Self-Administered Standardized Format (CRQ-SAS) First Administration Version - How happy, satisfied, or pleased have you been with your personal life during the last 2 weeks?", "preferredTerm": "CRQ-SAS First Administration Version - Happy, Satisfied or Pleased With Life", "submissionValue": "CRQ0118", "synonyms": ["CRQ01-Happy, Satisfied or Pleased"]}, {"conceptId": "C121028", "definition": "Chronic Respiratory Questionnaire Self-Administered Standardized Format (CRQ-SAS) First Administration Version - How often during the last 2 weeks did you feel upset or scared when you had difficulty getting your breath?", "preferredTerm": "CRQ-SAS First Administration Version - Feel Upset When Had Difficulty Getting Breath", "submissionValue": "CRQ0119", "synonyms": ["CRQ01-Feel Upset Diff Getting Breath"]}, {"conceptId": "C121029", "definition": "Chronic Respiratory Questionnaire Self-Administered Standardized Format (CRQ-SAS) First Administration Version - In general, how often during the last 2 weeks have you felt restless, tense, or uptight?", "preferredTerm": "CRQ-SAS First Administration Version - Felt Restless, Tense or Uptight", "submissionValue": "CRQ0120", "synonyms": ["CRQ01-Felt Restless, Tense or Uptight"]}]}