{"_links": {"parentPackage": {"href": "/mdr/ct/packages/coact-2015-03-27", "title": "COA Controlled Terminology Package 21 Effective 2015-03-27", "type": "Terminology"}, "rootItem": {"href": "/mdr/root/ct/coact/codelists/C120991", "title": "Version-agnostic anchor resource for codelist C120991", "type": "Root Value Domain"}, "self": {"href": "/mdr/ct/packages/coact-2015-03-27/codelists/C120991", "title": "CDISC Clinical Classification MELD Test Code Terminology", "type": "Code List"}}, "conceptId": "C120991", "definition": "Model for End Stage Liver Disease test code.", "extensible": "false", "name": "CC-Model for End Stage Liver Disease Clinical Classification Test Code", "preferredTerm": "CDISC Clinical Classification MELD Test Code Terminology", "submissionValue": "MELD TESTCD", "synonyms": ["CC-Model for End Stage Liver Disease Clinical Classification Test Code"], "terms": [{"conceptId": "C121076", "definition": "Model for End Stage Liver Disease - MELD score.", "preferredTerm": "MELD - Score", "submissionValue": "MELD0101", "synonyms": ["MELD01-Score"]}]}