{"_links": {"parentPackage": {"href": "/mdr/ct/packages/sdtmct-2020-06-26", "title": "SDTM Controlled Terminology Package 42 Effective 2020-06-26", "type": "Terminology"}, "priorVersion": {"href": "/mdr/ct/packages/sdtmct-2020-03-27/codelists/C100163", "title": "CDISC Questionnaire BPI Short Form Test Name Terminology", "type": "Code List"}, "rootItem": {"href": "/mdr/root/ct/sdtmct/codelists/C100163", "title": "Version-agnostic anchor resource for codelist C100163", "type": "Root Value Domain"}, "self": {"href": "/mdr/ct/packages/sdtmct-2020-06-26/codelists/C100163", "title": "CDISC Questionnaire BPI Short Form Test Name Terminology", "type": "Code List"}}, "conceptId": "C100163", "definition": "Brief Pain Inventory Short Form test name.", "extensible": "false", "name": "Brief Pain Inventory Short Form Questionnaire Test Name", "preferredTerm": "CDISC Questionnaire BPI Short Form Test Name Terminology", "submissionValue": "BPI2TN", "synonyms": ["Brief Pain Inventory Short Form Questionnaire Test Name"], "terms": [{"conceptId": "C100358", "definition": "Brief Pain Inventory Short Form - On the diagram, put an X on the area that hurts the most.", "preferredTerm": "BPI Short Form - Area that Hurts Most", "submissionValue": "BPI2-Area Hurts Most", "synonyms": ["BPI2-Area Hurts Most"]}, {"conceptId": "C100357", "definition": "Brief Pain Inventory Short Form - On the diagram, shade in the areas where you feel pain.", "preferredTerm": "BPI Short Form - Areas of Pain", "submissionValue": "BPI2-Areas of Pain", "synonyms": ["BPI2-Areas of Pain"]}, {"conceptId": "C100371", "definition": "Brief Pain Inventory Short Form - Circle the one number that describes how, during the past 24 hours, pain has interfered with your enjoyment of life.", "preferredTerm": "BPI Short Form - Pain Interfered with Enjoyment of Life", "submissionValue": "BPI2-Pain Interfered Enjoyment of Life", "synonyms": ["BPI2-Pain Interfered Enjoyment of Life"]}, {"conceptId": "C100365", "definition": "Brief Pain Inventory Short Form - Circle the one number that describes how, during the past 24 hours, pain has interfered with your general activity.", "preferredTerm": "BPI Short Form - Pain Interfered with General Activity", "submissionValue": "BPI2-Pain Interfered General Activity", "synonyms": ["BPI2-Pain Interfered General Activity"]}, {"conceptId": "C100367", "definition": "Brief Pain Inventory Short Form - Circle the one number that describes how, during the past 24 hours, pain has interfered with your walking ability.", "preferredTerm": "BPI Short Form - Pain Interfered with Walking Ability", "submissionValue": "BPI2-Pain Interfered Walking Ability", "synonyms": ["BPI2-Pain Interfered Walking Ability"]}, {"conceptId": "C100366", "definition": "Brief Pain Inventory Short Form - Circle the one number that describes how, during the past 24 hours, pain has interfered with your mood.", "preferredTerm": "BPI Short Form - Pain Interfered with Mood", "submissionValue": "BPI2-Pain Interfered with Mood", "synonyms": ["BPI2-Pain Interfered with Mood"]}, {"conceptId": "C100368", "definition": "Brief Pain Inventory Short Form - Circle the one number that describes how, during the past 24 hours, pain has interfered with your normal work.", "preferredTerm": "BPI Short Form - Pain Interfered with Normal Work", "submissionValue": "BPI2-Pain Interfered with Normal Work", "synonyms": ["BPI2-Pain Interfered with Normal Work"]}, {"conceptId": "C100369", "definition": "Brief Pain Inventory Short Form - Circle the one number that describes how, during the past 24 hours, pain has interfered with your relations with other people.", "preferredTerm": "BPI Short Form - Pain Interfered with Relations", "submissionValue": "BPI2-Pain Interfered with Relations", "synonyms": ["BPI2-Pain Interfered with Relations"]}, {"conceptId": "C100370", "definition": "Brief Pain Inventory Short Form - Circle the one number that describes how, during the past 24 hours, pain has interfered with your sleep.", "preferredTerm": "BPI Short Form - Pain Interfered with Sleep", "submissionValue": "BPI2-Pain Interfered with Sleep", "synonyms": ["BPI2-Pain Interfered with Sleep"]}, {"conceptId": "C100356", "definition": "Brief Pain Inventory Short Form - Have you had pain other than these everyday kinds of pain today?", "preferredTerm": "BPI Short Form - Pain Other Than Everyday Kinds", "submissionValue": "BPI2-Pain Other Than Everyday Kinds", "synonyms": ["BPI2-Pain Other Than Everyday Kinds"]}, {"conceptId": "C100362", "definition": "Brief Pain Inventory Short Form - Please rate your pain by circling the one number that tells how much pain you have right now.", "preferredTerm": "BPI Short Form - Pain Right Now", "submissionValue": "BPI2-Pain Right Now", "synonyms": ["BPI2-Pain Right Now"]}, {"conceptId": "C100360", "definition": "Brief Pain Inventory Short Form - Please rate your pain by circling the one number that best describes your pain at its least in the last 24 hours.", "preferredTerm": "BPI Short Form - Pain at its Least in Last 24 Hours", "submissionValue": "BPI2-Pain at its Least in Last 24 Hours", "synonyms": ["BPI2-Pain at its Least in Last 24 Hours"]}, {"conceptId": "C100359", "definition": "Brief Pain Inventory Short Form - Please rate your pain by circling the one number that best describes your pain at its worst in the last 24 hours.", "preferredTerm": "BPI Short Form - Pain at its Worst in Last 24 Hours", "submissionValue": "BPI2-Pain at its Worst in Last 24 Hours", "synonyms": ["BPI2-Pain at its Worst in Last 24 Hours"]}, {"conceptId": "C100361", "definition": "Brief Pain Inventory Short Form - Please rate your pain by circling the one number that best describes your pain on the average.", "preferredTerm": "BPI Short Form - Pain on the Average", "submissionValue": "BPI2-Pain on the Average", "synonyms": ["BPI2-Pain on the Average"]}, {"conceptId": "C100364", "definition": "Brief Pain Inventory Short Form - In the last 24 hours, how much relief have pain treatments or medications provided? Please circle the one percentage that most shows how much relief you have received.", "preferredTerm": "BPI Short Form - Relief from Pain Treatments Provided", "submissionValue": "BPI2-Relief Pain Treatments Provided", "synonyms": ["BPI2-Relief Pain Treatments Provided"]}, {"conceptId": "C100363", "definition": "Brief Pain Inventory Short Form - What treatments or medications are you receiving for your pain?", "preferredTerm": "BPI Short Form - Treatments or Medications Receiving for Pain", "submissionValue": "BPI2-Treatments Receiving for Pain", "synonyms": ["BPI2-Treatments Receiving for Pain"]}]}