{"_links": {"parentPackage": {"href": "/mdr/ct/packages/sdtmct-2020-06-26", "title": "SDTM Controlled Terminology Package 42 Effective 2020-06-26", "type": "Terminology"}, "priorVersion": {"href": "/mdr/ct/packages/sdtmct-2020-03-27/codelists/C101839", "title": "CDISC SDTM New York Heart Association Class Responses Terminology", "type": "Code List"}, "rootItem": {"href": "/mdr/root/ct/sdtmct/codelists/C101839", "title": "Version-agnostic anchor resource for codelist C101839", "type": "Root Value Domain"}, "self": {"href": "/mdr/ct/packages/sdtmct-2020-06-26/codelists/C101839", "title": "CDISC SDTM New York Heart Association Class Responses Terminology", "type": "Code List"}}, "conceptId": "C101839", "definition": "A terminology codelist based on the functional classification developed by the New York Heart Association (NYHA), for categorizing patients with defined or presumed cardiac disease.", "extensible": "false", "name": "New York Heart Association Classification", "preferredTerm": "CDISC SDTM New York Heart Association Class Responses Terminology", "submissionValue": "NYHAC", "synonyms": ["New York Heart Association Classification"], "terms": [{"conceptId": "C66904", "definition": "Without limitations of physical activity. Ordinary physical activity does not cause undue fatigue, palpitations, or dyspnea.", "preferredTerm": "New York Heart Association Class I", "submissionValue": "NYHA CLASS I", "synonyms": ["New York Heart Association Class I"]}, {"conceptId": "C66905", "definition": "Slight limitation of physical activity. The patient is comfortable at rest. Ordinary physical activity results in fatigue, palpitations, or dyspnea.", "preferredTerm": "New York Heart Association Class II", "submissionValue": "NYHA CLASS II", "synonyms": ["New York Heart Association Class II"]}, {"conceptId": "C66907", "definition": "Marked limitation of physical activity. The patient is comfortable at rest. Less than ordinary activity causes fatigue, palpitations, or dyspnea.", "preferredTerm": "New York Heart Association Class III", "submissionValue": "NYHA CLASS III", "synonyms": ["New York Heart Association Class III"]}, {"conceptId": "C66908", "definition": "Inability to carry on any physical activity without discomfort. Heart failure symptoms are present even at rest or with minimal exertion.", "preferredTerm": "New York Heart Association Class IV", "submissionValue": "NYHA CLASS IV", "synonyms": ["New York Heart Association Class IV"]}]}