{"_links": {"parentPackage": {"href": "/mdr/ct/packages/sdtmct-2020-06-26", "title": "SDTM Controlled Terminology Package 42 Effective 2020-06-26", "type": "Terminology"}, "priorVersion": {"href": "/mdr/ct/packages/sdtmct-2020-03-27/codelists/C101864", "title": "CDISC SDTM Reason Coronary Sinus Access or Left Ventricular Lead Not Implanted Terminology", "type": "Code List"}, "rootItem": {"href": "/mdr/root/ct/sdtmct/codelists/C101864", "title": "Version-agnostic anchor resource for codelist C101864", "type": "Root Value Domain"}, "self": {"href": "/mdr/ct/packages/sdtmct-2020-06-26/codelists/C101864", "title": "CDISC SDTM Reason Coronary Sinus Access or Left Ventricular Lead Not Implanted Terminology", "type": "Code List"}}, "conceptId": "C101864", "definition": "The reason that a Coronary Sinus Access or Left Ventricular (CS/LV) lead was not implanted.", "extensible": "false", "name": "Reason CS/LV Lead Not Implanted", "preferredTerm": "CDISC SDTM Reason Coronary Sinus Access or Left Ventricular Lead Not Implanted Terminology", "submissionValue": "CSLVLNIM", "synonyms": ["Reason CS/LV Lead Not Implanted"], "terms": [{"conceptId": "C100025", "definition": "The coronary sinus/left ventricular lead was not implanted because the operator was unable to obtain acceptable pacing thresholds.", "preferredTerm": "Unable to Obtain Acceptable Pacing Thresholds", "submissionValue": "COULD NOT OBTAIN ACCEPTABLE PACING THRESHOLDS"}, {"conceptId": "C99933", "definition": "The coronary sinus/left ventricular lead was not implanted because the lead position resulted in undesirable stimulation of the diaphragm.", "preferredTerm": "Cardiac Lead Position Results in Undesirable Stimulation of Diaphragm", "submissionValue": "LEAD POSITION RESULTS IN UNDESIRABLE STIMULATION OF THE DIAPHRAGM"}, {"conceptId": "C100007", "definition": "The coronary sinus/left ventricular lead was not implanted because a lead had been previously implanted.", "preferredTerm": "Previously Implanted Cardiac Lead", "submissionValue": "PREVIOUSLY IMPLANTED"}, {"conceptId": "C100026", "definition": "The coronary sinus/left ventricular lead was not implanted because the operator was unable to obtain satisfactory coronary sinus access.", "preferredTerm": "Unable to Obtain Satisfactory Coronary Sinus Access", "submissionValue": "UNABLE TO OBTAIN SATISFACTORY CORONARY SINUS ACCESS"}, {"conceptId": "C100027", "definition": "The coronary sinus/left ventricular lead was not implanted because the operator was unable to obtain satisfactory vascular access.", "preferredTerm": "Unable to Obtain Satisfactory Vascular Access", "submissionValue": "UNABLE TO OBTAIN SATISFACTORY VASCULAR ACCESS"}, {"conceptId": "C100028", "definition": "The coronary sinus/left ventricular lead was not implanted because the coronary sinus was dissected.", "preferredTerm": "Unable to Position Lead Due to Coronary Sinus Dissection", "submissionValue": "UNABLE TO POSITION LEAD DUE TO CORONARY SINUS DISSECTION"}, {"conceptId": "C100029", "definition": "The coronary sinus/left ventricular lead was not implanted because the operator was unable to position the lead in the tributary vein of the coronary sinus.", "preferredTerm": "Unable to Position Lead In tributary Vein of Coronary Sinus", "submissionValue": "UNABLE TO POSITION LEAD IN TRIBUTARY VEIN OF CORONARY SINUS"}]}