{"_links": {"parentPackage": {"href": "/mdr/ct/packages/sdtmct-2020-06-26", "title": "SDTM Controlled Terminology Package 42 Effective 2020-06-26", "type": "Terminology"}, "priorVersion": {"href": "/mdr/ct/packages/sdtmct-2020-03-27/codelists/C103479", "title": "CDISC Questionnaire ODI v2.1a Test Code Terminology", "type": "Code List"}, "rootItem": {"href": "/mdr/root/ct/sdtmct/codelists/C103479", "title": "Version-agnostic anchor resource for codelist C103479", "type": "Root Value Domain"}, "self": {"href": "/mdr/ct/packages/sdtmct-2020-06-26/codelists/C103479", "title": "CDISC Questionnaire ODI v2.1a Test Code Terminology", "type": "Code List"}}, "conceptId": "C103479", "definition": "The Oswestry Disability Index Version 2.1a test code.", "extensible": "false", "name": "The Oswestry Disability Index Version 2.1a Questionnaire Test Code", "preferredTerm": "CDISC Questionnaire ODI v2.1a Test Code Terminology", "submissionValue": "ODI01TC", "synonyms": ["The Oswestry Disability Index Version 2.1a Questionnaire Test Code"], "terms": [{"conceptId": "C103762", "definition": "The Oswestry Disability Index Version 2.1a - Section 1 - Pain intensity.", "preferredTerm": "ODI v2.1a - Pain Intensity", "submissionValue": "ODI0101", "synonyms": ["ODI01-Pain Intensity"]}, {"conceptId": "C103763", "definition": "The Oswestry Disability Index Version 2.1a - Section 2 - Personal care (washing, dressing, etc.).", "preferredTerm": "ODI v2.1a - Personal Care", "submissionValue": "ODI0102", "synonyms": ["ODI01-Personal Care"]}, {"conceptId": "C103764", "definition": "The Oswestry Disability Index Version 2.1a - Section 3 - Lifting.", "preferredTerm": "ODI v2.1a - Lifting", "submissionValue": "ODI0103", "synonyms": ["ODI01-Lifting"]}, {"conceptId": "C103765", "definition": "The Oswestry Disability Index Version 2.1a - Section 4 - Walking.", "preferredTerm": "ODI v2.1a - Walking", "submissionValue": "ODI0104", "synonyms": ["ODI01-Walking"]}, {"conceptId": "C103766", "definition": "The Oswestry Disability Index Version 2.1a - Section 5 - Sitting.", "preferredTerm": "ODI v2.1a - Sitting", "submissionValue": "ODI0105", "synonyms": ["ODI01-Sitting"]}, {"conceptId": "C103767", "definition": "The Oswestry Disability Index Version 2.1a - Section 6 - Standing.", "preferredTerm": "ODI v2.1a - Standing", "submissionValue": "ODI0106", "synonyms": ["ODI01-Standing"]}, {"conceptId": "C103768", "definition": "The Oswestry Disability Index Version 2.1a - Section 7 - Sleeping.", "preferredTerm": "ODI v2.1a - Sleeping", "submissionValue": "ODI0107", "synonyms": ["ODI01-Sleeping"]}, {"conceptId": "C103769", "definition": "The Oswestry Disability Index Version 2.1a - Section 8 - Sex life (if applicable).", "preferredTerm": "ODI v2.1a - Sex Life", "submissionValue": "ODI0108", "synonyms": ["ODI01-Sex Life"]}, {"conceptId": "C103770", "definition": "The Oswestry Disability Index Version 2.1a - Section 9 - Social life.", "preferredTerm": "ODI v2.1a - Social Life", "submissionValue": "ODI0109", "synonyms": ["ODI01-Social Life"]}, {"conceptId": "C103771", "definition": "The Oswestry Disability Index Version 2.1a - Section 10 - Travelling.", "preferredTerm": "ODI v2.1a - Travelling", "submissionValue": "ODI0110", "synonyms": ["ODI01-Travelling"]}, {"conceptId": "C125762", "definition": "The Oswestry Disability Index Version 2.1a - Your ODI.", "preferredTerm": "ODI v2.1a - Oswestry Disability Index", "submissionValue": "ODI0111", "synonyms": ["ODI01-Oswestry Disability Index"]}]}