{"_links": {"parentPackage": {"href": "/mdr/ct/packages/sdtmct-2020-06-26", "title": "SDTM Controlled Terminology Package 42 Effective 2020-06-26", "type": "Terminology"}, "priorVersion": {"href": "/mdr/ct/packages/sdtmct-2020-03-27/codelists/C106478", "title": "CDISC SDTM Reproductive System Findings Test Name Terminology", "type": "Code List"}, "rootItem": {"href": "/mdr/root/ct/sdtmct/codelists/C106478", "title": "Version-agnostic anchor resource for codelist C106478", "type": "Root Value Domain"}, "self": {"href": "/mdr/ct/packages/sdtmct-2020-06-26/codelists/C106478", "title": "CDISC SDTM Reproductive System Findings Test Name Terminology", "type": "Code List"}}, "conceptId": "C106478", "definition": "A terminology codelist for the physiological test names related to the male and female reproductive systems.", "extensible": "true", "name": "Reproductive System Findings Test Name", "preferredTerm": "CDISC SDTM Reproductive System Findings Test Name Terminology", "submissionValue": "RPTEST", "synonyms": ["Reproductive System Findings Test Name"], "terms": [{"conceptId": "C154889", "definition": "An indication as to whether there is the presence of abnormal bleeding.", "preferredTerm": "Abnormal Bleeding Indicator", "submissionValue": "Abnormal Bleeding Indicator", "synonyms": ["Abnormal Bleeding Indicator"]}, {"conceptId": "C154880", "definition": "An indication as to whether the Bartholin's gland is abnormal.", "preferredTerm": "Bartholin's Gland Abnormality Indicator", "submissionValue": "Bartholin's Gland Abnormality Indicator", "synonyms": ["Bartholin's Gland Abnormality Indicator"]}, {"conceptId": "C106501", "definition": "The method by which conception or impregnation is prevented.", "preferredTerm": "Birth Control Method", "submissionValue": "Birth Control Method", "synonyms": ["Birth Control Method"]}, {"conceptId": "C122195", "definition": "An indication as to whether blistering occurred.", "preferredTerm": "Blistering Indicator", "submissionValue": "Blistering Indicator", "synonyms": ["Blistering Indicator"]}, {"conceptId": "C106508", "definition": "An indicator as to whether the female subject has the potential to become pregnant. (NCI)", "preferredTerm": "Childbearing Potential", "submissionValue": "Childbearing Potential", "synonyms": ["Childbearing Potential"]}, {"conceptId": "C122187", "definition": "An indication as to whether any abnormality was present at birth or during the neonatal period.", "preferredTerm": "Congenital Abnormality Indicator", "submissionValue": "Congenital Abnormality Indicator", "synonyms": ["Congenital Abnormality Indicator"]}, {"conceptId": "C163558", "definition": "The date on which the pregnancy ended.", "preferredTerm": "Pregnancy End Date", "submissionValue": "Date Pregnancy Ended", "synonyms": ["Date Pregnancy Ended"]}, {"conceptId": "C154888", "definition": "An indication as to whether there is the presence of discharge.", "preferredTerm": "Discharge Indicator", "submissionValue": "Discharge Indicator", "synonyms": ["Discharge Indicator"]}, {"conceptId": "C154884", "definition": "An indication as to whether ecchymosis is present.", "preferredTerm": "Ecchymosis Indicator", "submissionValue": "Ecchymosis Indicator", "synonyms": ["Ecchymosis Indicator"]}, {"conceptId": "C154885", "definition": "An indication as to whether edema is present.", "preferredTerm": "Edema Indicator", "submissionValue": "Edema Indicator", "synonyms": ["Edema Indicator"]}, {"conceptId": "C154877", "definition": "An indication as to whether erythema is present.", "preferredTerm": "Erythema Indicator", "submissionValue": "Erythema Indicator", "synonyms": ["Erythema Indicator", "Redness Indicator"]}, {"conceptId": "C158276", "definition": "The approximate date of the first day of the next menstrual cycle.", "preferredTerm": "Estimated Next Menstrual Period Start Date", "submissionValue": "Est Next Menstrual Period Start Date", "synonyms": ["Est Next Menstrual Period Start Date", "Estimated Next Menstrual Period Start Date"]}, {"conceptId": "C120833", "definition": "An approximate calculated date at which the conception event took place.", "preferredTerm": "Estimated Date of Conception", "submissionValue": "Estimated Date of Conception", "synonyms": ["Estimated Date of Conception"]}, {"conceptId": "C81247", "definition": "An approximate calculation of the delivery date.", "preferredTerm": "Expected Date of Confinement", "submissionValue": "Estimated Date of Delivery", "synonyms": ["Estimated Date of Delivery"]}, {"conceptId": "C122188", "definition": "An approximate calculation of the gestational age of the fetus.", "preferredTerm": "Estimated Gestational Age", "submissionValue": "Estimated Gestational Age", "synonyms": ["Estimated Gestational Age"]}, {"conceptId": "C154876", "definition": "A measurement of the distance between the pubic symphysis and the top of the palpable uterus.", "preferredTerm": "Fundal Height", "submissionValue": "Fundal Height", "synonyms": ["Fundal Height"]}, {"conceptId": "C156588", "definition": "An indication as to whether the female subject has ever had an induced abortion procedure.", "preferredTerm": "Induced Abortion Indicator", "submissionValue": "Induced Abortion Indicator", "synonyms": ["Induced Abortion Indicator"]}, {"conceptId": "C41255", "definition": "An act or process of elucidation; explication, or explanation of the meaning of the event or thing via the assignment of objects from the domain to the constants of a formal language, truth-values to the proposition symbols, truth-functions to the connectives, other functions to the function symbols, and extensions to the predicates, if any. The assignments are result of human logic application and are not native to the symbols of the formal language.", "preferredTerm": "Interpretation", "submissionValue": "Interpretation", "synonyms": ["Interpretation"]}, {"conceptId": "C81257", "definition": "The first day of the most recent menstrual cycle.", "preferredTerm": "Last Menstrual Period", "submissionValue": "Last Menstrual Period Start Date", "synonyms": ["Last Menstrual Period Start Date"]}, {"conceptId": "C156589", "definition": "An indication as to whether the subject has ever delivered live-born offspring.", "preferredTerm": "Live Birth Indicator", "submissionValue": "Live Birth Indicator", "synonyms": ["Live Birth Indicator"]}, {"conceptId": "C154886", "definition": "An indication as to whether a mass is present.", "preferredTerm": "Mass Indicator", "submissionValue": "Mass Indicator", "synonyms": ["Mass Indicator"]}, {"conceptId": "C19666", "definition": "The age at which the first menstruation event occurred. (NCI)", "preferredTerm": "Age at Menarche", "submissionValue": "Menarche Age", "synonyms": ["Menarche Age"]}, {"conceptId": "C106497", "definition": "The age at which permanent cessation of menses occurred. (NCI)", "preferredTerm": "Age at Menopause", "submissionValue": "Menopause Age", "synonyms": ["Menopause Age"]}, {"conceptId": "C106541", "definition": "The status of a female with respect to menopause.", "preferredTerm": "Menopause Status", "submissionValue": "Menopause Status", "synonyms": ["Menopause Status"]}, {"conceptId": "C156586", "definition": "The length of time during which menses is expelled from the uterus.", "preferredTerm": "Menses Duration", "submissionValue": "Menses Flow Duration", "synonyms": ["Menses Flow Duration"]}, {"conceptId": "C156585", "definition": "A subjective description of the menstrual flow rate during a menstrual cycle.", "preferredTerm": "Menses Flow Rate Description", "submissionValue": "Menses Flow Rate Description", "synonyms": ["Menses Flow Rate Description"]}, {"conceptId": "C119549", "definition": "The length of time of the menses cycle, measured from the beginning of one menstrual period to the beginning of the next.", "preferredTerm": "Menstrual Cycle Duration", "submissionValue": "Menstrual Cycle Duration", "synonyms": ["Menstrual Cycle Duration"]}, {"conceptId": "C156587", "definition": "A description of how an individual's menstrual cycle conforms to a consistent temporal pattern.", "preferredTerm": "Menstrual Cycle Regularity", "submissionValue": "Menstrual Cycle Regularity", "synonyms": ["Menstrual Cycle Regularity"]}, {"conceptId": "C122191", "definition": "An indication as to whether any pregnancies resulted in miscarriages.", "preferredTerm": "Miscarriage Indicator", "submissionValue": "Miscarriage Indicator", "synonyms": ["Miscarriage Indicator"]}, {"conceptId": "C81179", "definition": "Description of the method by which a fetus is delivered.", "preferredTerm": "Delivery Procedure", "submissionValue": "Mode of Delivery", "synonyms": ["Mode of Delivery"]}, {"conceptId": "C154887", "definition": "An indication as to whether there are symptoms of motion tenderness.", "preferredTerm": "Motion Tenderness Indicator", "submissionValue": "Motion Tenderness Indicator", "synonyms": ["Motion Tenderness Indicator"]}, {"conceptId": "C139265", "definition": "A measurement of the total number of live birth events at which the gestational age of the neonate is 39 weeks and 0 days through 40 weeks and 6 days.", "preferredTerm": "Number of Full Term Live Births", "submissionValue": "Number Full Term Live Births", "synonyms": ["Number Full Term Live Births"]}, {"conceptId": "C106550", "definition": "A measurement of the total number of instances in which there has been a spontaneous termination of pregnancy (miscarriage) or elective termination of pregnancy.", "preferredTerm": "Number of Abortions", "submissionValue": "Number of Abortions", "synonyms": ["Number of Abortions"]}, {"conceptId": "C158275", "definition": "A measurement of the total number of birth events experienced by a female.", "preferredTerm": "Number of Births", "submissionValue": "Number of Births", "synonyms": ["Number of Births"]}, {"conceptId": "C122189", "definition": "A measurement of the total number of birth events at which the gestational age of the neonate is 37 weeks and 0 days through 38 weeks and 6 days.", "preferredTerm": "Number of Early Term Births", "submissionValue": "Number of Early Term Births", "synonyms": ["Number of Early Term Births"]}, {"conceptId": "C120832", "definition": "A measurement of the total number of ectopic pregnancies experienced by a female subject.", "preferredTerm": "Number of Ectopic Pregnancies", "submissionValue": "Number of Ectopic Pregnancies", "synonyms": ["Number of Ectopic Pregnancies"]}, {"conceptId": "C122190", "definition": "A measurement of the total number of birth events (both live and dead) at which the gestational age of the neonate is 39 weeks and 0 days through 40 weeks and 6 days.", "preferredTerm": "Number of Full Term Births", "submissionValue": "Number of Full Term Births", "synonyms": ["Number of Full Term Births"]}, {"conceptId": "C120835", "definition": "A measurement of the total number of induced abortions experienced by a female subject.", "preferredTerm": "Number of Induced Abortions", "submissionValue": "Number of Induced Abortions", "synonyms": ["Number of Induced Abortions"]}, {"conceptId": "C120834", "definition": "A measurement of the total number of fetal deaths (death of a fetus at 16 weeks, 0 days to 19 weeks, 6 days of gestation)  experienced by a female subject.", "preferredTerm": "Number of Late Fetal Deaths", "submissionValue": "Number of Late Fetal Deaths", "synonyms": ["Number of Late Fetal Deaths"]}, {"conceptId": "C16955", "definition": "A measurement of the total number of live-born offspring a female has delivered.", "preferredTerm": "Parity", "submissionValue": "Number of Live Births", "synonyms": ["Number of Live Births"]}, {"conceptId": "C106551", "definition": "A measurement of the total number of pregnancy events experienced by a female.", "preferredTerm": "Number of Pregnancies", "submissionValue": "Number of Pregnancies", "synonyms": ["Number of Pregnancies"]}, {"conceptId": "C122193", "definition": "A measurement of the total number of birth events (both live and dead) at which the gestational age of the neonate is less than 37 weeks and 0 days.", "preferredTerm": "Number of Premature Births", "submissionValue": "Number of Premature Births", "synonyms": ["Number of Premature Births"]}, {"conceptId": "C139266", "definition": "A measurement of the total number of live birth events at which the gestational age of the neonate is less than 37 weeks and 0 days.", "preferredTerm": "Number of Premature Live Births", "submissionValue": "Number of Premature Live Births", "synonyms": ["Number of Premature Live Births"]}, {"conceptId": "C120836", "definition": "A measurement of the total number of pregnancy events experienced by the female subject prior to the current pregnancy.", "preferredTerm": "Number of Previous Pregnancies", "submissionValue": "Number of Previous Pregnancies", "synonyms": ["Number of Previous Pregnancies"]}, {"conceptId": "C120837", "definition": "A measurement of the total number of spontaneous abortions (in which the fetus is less than 20 weeks gestational age) experienced by a female subject.", "preferredTerm": "Number of Spontaneous Abortions", "submissionValue": "Number of Spontaneous Abortions", "synonyms": ["Number of Spontaneous Abortions"]}, {"conceptId": "C139267", "definition": "A measurement of the total number of birth events at which the fetus is of at least 20 weeks gestation, or of a birth weight of at least 350 grams if the gestational age is unknown, which is born without signs of life at the time of delivery, and with an Apgar score of zero at both one and five minutes.", "preferredTerm": "Number of Stillbirths", "submissionValue": "Number of Stillbirths", "synonyms": ["Number of Stillbirths"]}, {"conceptId": "C154883", "definition": "An indication as to whether there is the presence of peeling.", "preferredTerm": "Peeling Indicator", "submissionValue": "Peeling Indicator", "synonyms": ["Peeling Indicator"]}, {"conceptId": "C122192", "definition": "An indication as to whether the subject's pregnancy has been confirmed.", "preferredTerm": "Pregnancy Confirmed Indicator", "submissionValue": "Pregnancy Confirmed Indicator", "synonyms": ["Pregnancy Confirmed Indicator"]}, {"conceptId": "C106561", "definition": "An indicator as to whether a female is pregnant during the study period. (NCI)", "preferredTerm": "Pregnant During the Study", "submissionValue": "Pregnant During the Study", "synonyms": ["Pregnant During the Study"]}, {"conceptId": "C139264", "definition": "An indication as to whether the subject or associated person is pregnant at the time the question is asked.", "preferredTerm": "Pregnancy Indicator", "submissionValue": "Pregnant Indicator", "synonyms": ["Pregnant Indicator"]}, {"conceptId": "C163557", "definition": "An indication as to whether the products of conception have been examined.", "preferredTerm": "Products of Conception Examined Indicator", "submissionValue": "Products of Conception Examined Ind", "synonyms": ["Products of Conception Examined Ind", "Products of Conception Examined Indicator"]}, {"conceptId": "C154882", "definition": "An indication as to whether a pustule is present.", "preferredTerm": "Pustule Indicator", "submissionValue": "Pustule Indicator", "synonyms": ["Pustule Indicator"]}, {"conceptId": "C154878", "definition": "An indication as to whether rash is present.", "preferredTerm": "Rash Indicator", "submissionValue": "Rash Indicator", "synonyms": ["Rash Indicator"]}, {"conceptId": "C154879", "definition": "An indication as to whether the Skene's gland is abnormal.", "preferredTerm": "Skene's Gland Abnormality Indicator", "submissionValue": "Skene's Gland Abnormality Indicator", "synonyms": ["Skene's Gland Abnormality Indicator"]}, {"conceptId": "C122194", "definition": "An indication as to whether any pregnancies resulted in stillbirths.", "preferredTerm": "Stillbirth Indicator", "submissionValue": "Stillbirth Indicator", "synonyms": ["Stillbirth Indicator"]}, {"conceptId": "C124718", "definition": "An assessment and classification of the development of breasts in girls that is based on the Tanner Scale of pubertal changes in girls (Marshall WA, Tanner JM. Variations in pattern of pubertal changes in girls. Arch Dis Child 1969 Jun; 44(235): 291-303).", "preferredTerm": "Tanner Scale-Girl - Breast Stages", "submissionValue": "Tanner Scale for Females, Breast Stage", "synonyms": ["Tanner Scale for Females, Breast Stage", "Tanner Scale for Girls, Breast Stage"]}, {"conceptId": "C124719", "definition": "An assessment and classification of the development of pubic hair in girls that is based on the Tanner Scale of pubertal changes in girls (Marshall WA, Tanner JM. Variations in pattern of pubertal changes in girls. Arch Dis Child 1969 Jun; 44(235): 291-303).", "preferredTerm": "Tanner Scale-Girl - Pubic Hair Stages", "submissionValue": "Tanner Scale for Females, Pubic Hair Stg", "synonyms": ["Tanner Scale for Females, Pubic Hair Stage", "Tanner Scale for Females, Pubic Hair Stg", "Tanner Scale for Girls, Pubic Hair Stage"]}, {"conceptId": "C124716", "definition": "An assessment and classification of the development of genitalia in boys that is based on the Tanner Scale of pubertal changes in boys (Marshall WA, Tanner JM. Variations in pattern of pubertal changes in boys. Arch Dis Child 1970 Feb;45(239):13-23).", "preferredTerm": "Tanner Scale-Boy - Genitalia Stages", "submissionValue": "Tanner Scale for Males, Genitalia Stage", "synonyms": ["Tanner Scale for Boy, Genitalia Stage", "Tanner Scale for Males, Genitalia Stage"]}, {"conceptId": "C124717", "definition": "An assessment and classification of the development of pubic hair in boys that is based on the Tanner Scale of pubertal changes in boys (Marshall WA, Tanner JM. Variations in pattern of pubertal changes in boys. Arch Dis Child 1970 Feb;45(239):13-23).", "preferredTerm": "Tanner Scale-Boy - Pubic Hair Stages", "submissionValue": "Tanner Scale for Males, Pubic Hair Stage", "synonyms": ["Tanner Scale for Boy, Pubic Hair Stage", "Tanner Scale for Males, Pubic Hair Stage"]}, {"conceptId": "C127775", "definition": "An indication as to whether there are symptoms of tenderness.", "preferredTerm": "Tenderness Indicator", "submissionValue": "Tenderness Indicator", "synonyms": ["Tenderness Indicator"]}, {"conceptId": "C41145", "definition": "The dimension between two surfaces of an object, usually the smallest dimension as opposed to the width or the length.", "preferredTerm": "Thickness", "submissionValue": "Thickness", "synonyms": ["Thickness"]}, {"conceptId": "C154881", "definition": "An indication as to whether an ulcer is present.", "preferredTerm": "Ulcer Indicator", "submissionValue": "Ulcer Indicator", "synonyms": ["Ulcer Indicator"]}]}