{"_links": {"parentPackage": {"href": "/mdr/ct/packages/sdtmct-2020-06-26", "title": "SDTM Controlled Terminology Package 42 Effective 2020-06-26", "type": "Terminology"}, "priorVersion": {"href": "/mdr/ct/packages/sdtmct-2020-03-27/codelists/C115402", "title": "CDISC Questionnaire DRS Test Code Terminology", "type": "Code List"}, "rootItem": {"href": "/mdr/root/ct/sdtmct/codelists/C115402", "title": "Version-agnostic anchor resource for codelist C115402", "type": "Root Value Domain"}, "self": {"href": "/mdr/ct/packages/sdtmct-2020-06-26/codelists/C115402", "title": "CDISC Questionnaire DRS Test Code Terminology", "type": "Code List"}}, "conceptId": "C115402", "definition": "Disability Rating Scale test code.", "extensible": "false", "name": "Disability Rating Scale Questionnaire Test Code", "preferredTerm": "CDISC Questionnaire DRS Test Code Terminology", "submissionValue": "DRS01TC", "synonyms": ["Disability Rating Scale Questionnaire Test Code"], "terms": [{"conceptId": "C115820", "definition": "Disability Rating Scale - Eye opening.", "preferredTerm": "DRS - Eye Opening", "submissionValue": "DRS0101", "synonyms": ["DRS01-Eye Opening"]}, {"conceptId": "C115821", "definition": "Disability Rating Scale - Communication ability.", "preferredTerm": "DRS - Communication Ability", "submissionValue": "DRS0102", "synonyms": ["DRS01-Communication Ability"]}, {"conceptId": "C115822", "definition": "Disability Rating Scale - Motor response.", "preferredTerm": "DRS - Motor Response", "submissionValue": "DRS0103", "synonyms": ["DRS01-Motor Response"]}, {"conceptId": "C115823", "definition": "Disability Rating Scale - Feeding (cognitive ability only).", "preferredTerm": "DRS - Feeding", "submissionValue": "DRS0104", "synonyms": ["DRS01-Feeding"]}, {"conceptId": "C115824", "definition": "Disability Rating Scale - Toileting (cognitive ability only).", "preferredTerm": "DRS - Toileting", "submissionValue": "DRS0105", "synonyms": ["DRS01-Toileting"]}, {"conceptId": "C115825", "definition": "Disability Rating Scale - Grooming (cognitive ability only).", "preferredTerm": "DRS - Grooming", "submissionValue": "DRS0106", "synonyms": ["DRS01-Grooming"]}, {"conceptId": "C115826", "definition": "Disability Rating Scale - Level of functioning (physical, mental, emotional or social function).", "preferredTerm": "DRS - Level of Functioning", "submissionValue": "DRS0107", "synonyms": ["DRS01-Level of Functioning"]}, {"conceptId": "C115827", "definition": "Disability Rating Scale - Employability (as a full time worker, homemaker, or student).", "preferredTerm": "DRS - Employability", "submissionValue": "DRS0108", "synonyms": ["DRS01-Employability"]}]}