{"_links": {"parentPackage": {"href": "/mdr/ct/packages/sdtmct-2020-06-26", "title": "SDTM Controlled Terminology Package 42 Effective 2020-06-26", "type": "Terminology"}, "priorVersion": {"href": "/mdr/ct/packages/sdtmct-2020-03-27/codelists/C119020", "title": "CDISC SDTM ARC Coronary Stent Thrombosis Grade Responses Terminology", "type": "Code List"}, "rootItem": {"href": "/mdr/root/ct/sdtmct/codelists/C119020", "title": "Version-agnostic anchor resource for codelist C119020", "type": "Root Value Domain"}, "self": {"href": "/mdr/ct/packages/sdtmct-2020-06-26/codelists/C119020", "title": "CDISC SDTM ARC Coronary Stent Thrombosis Grade Responses Terminology", "type": "Code List"}}, "conceptId": "C119020", "definition": "A terminology codelist relevant to the Academic Research Council grade for the probability that coronary artery stent thrombosis has occurred.", "extensible": "false", "name": "Stent Thrombosis, Coronary ARC Grade Responses", "preferredTerm": "CDISC SDTM ARC Coronary Stent Thrombosis Grade Responses Terminology", "submissionValue": "STCARCRS", "synonyms": ["Stent Thrombosis, Coronary ARC Grade Responses"], "terms": [{"conceptId": "C119598", "definition": "Includes acute ischemic symptoms at rest, acute post ischemic ECG, positive biomarkers and pathological evidence. Definite stent thrombosis is considered to have occurred when there is either angiographic or pathological confirmation. Angiographic confirmation is the presence of a thrombus at coronary angiography that originates in the stent or in the segment 5 mm proximal or distal to the stent, with the presence of at least 1 of 3 clinical criteria within a 48-hour time window: 1) acute onset of ischemic symptoms at rest; 2) new ischemic ECG changes that suggest acute ischemia; or 3) typical rise and fall in cardiac biomarkers. Pathological confirmation is evidence of recent thrombus within the stent determined at autopsy or via examination of tissue retrieved following thrombectomy. (Cutlip DE, Windecker S, Mehran R, et al. Clinical End Points in Coronary Stent Trials : A Case for Standardized Definitions. Circulation. 2007;115:2344-2351)", "preferredTerm": "ARC Definite Stent Thrombosis", "submissionValue": "STENT THROMBOSIS ARC GRADE DEFINITE"}, {"conceptId": "C119600", "definition": "Possible stent thrombosis is considered to have occurred with any unexplained death more than 30 days after intracoronary stenting. (Cutlip DE, Windecker S, Mehran R, et al. Clinical End Points in Coronary Stent Trials : A Case for Standardized Definitions. Circulation. 2007;115:2344-2351)", "preferredTerm": "ARC Possible Stent Thrombosis", "submissionValue": "STENT THROMBOSIS ARC GRADE POSSIBLE"}, {"conceptId": "C119599", "definition": "Includes death within 30 days and myocardial infarction of stent territory. Probable stent thrombosis is considered to have occurred after intracoronary stenting in the following situations: 1) any unexplained death within the first 30 days; or 2) irrespective of the time after the index procedure, any MI that is related to documented acute ischemia in the territory of the implanted stent without angiographic confirmation of stent thrombosis and in the absence of any other obvious cause. (Cutlip DE, Windecker S, Mehran R, et al. Clinical End Points in Coronary Stent Trials : A Case for Standardized Definitions. Circulation. 2007;115:2344-2351)", "preferredTerm": "ARC Probable Stent Thrombosis", "submissionValue": "STENT THROMBOSIS ARC GRADE PROBABLE"}]}