{"_links": {"parentPackage": {"href": "/mdr/ct/packages/sdtmct-2020-06-26", "title": "SDTM Controlled Terminology Package 42 Effective 2020-06-26", "type": "Terminology"}, "priorVersion": {"href": "/mdr/ct/packages/sdtmct-2020-03-27/codelists/C124671", "title": "CDISC Clinical Classification Reynolds CVD 10-Year Risk Score Test Name Terminology", "type": "Code List"}, "rootItem": {"href": "/mdr/root/ct/sdtmct/codelists/C124671", "title": "Version-agnostic anchor resource for codelist C124671", "type": "Root Value Domain"}, "self": {"href": "/mdr/ct/packages/sdtmct-2020-06-26/codelists/C124671", "title": "CDISC Clinical Classification Reynolds CVD 10-Year Risk Score Test Name Terminology", "type": "Code List"}}, "conceptId": "C124671", "definition": "Reynolds Cardiovascular Disease 10-Year Risk Score test name.", "extensible": "false", "name": "Reynolds Cardiovascular Disease 10-Year Risk Score Clinical Classification Test Name", "preferredTerm": "CDISC Clinical Classification Reynolds CVD 10-Year Risk Score Test Name Terminology", "submissionValue": "RCVD01TN", "synonyms": ["Reynolds Cardiovascular Disease 10-Year Risk Score Clinical Classification Test Name"], "terms": [{"conceptId": "C124723", "definition": "Reynolds Cardiovascular Disease 10-Year Risk Score - Cardiovascular disease 10-year risk score.", "preferredTerm": "Reynolds CVD 10-Year Risk Score - Risk Score", "submissionValue": "RCVD01-Reynolds CVD 10-Year Risk Score", "synonyms": ["RCVD01-Reynolds CVD 10-Year Risk Score"]}]}