{"_links": {"parentPackage": {"href": "/mdr/ct/packages/sdtmct-2020-06-26", "title": "SDTM Controlled Terminology Package 42 Effective 2020-06-26", "type": "Terminology"}, "priorVersion": {"href": "/mdr/ct/packages/sdtmct-2020-03-27/codelists/C124683", "title": "CDISC Clinical Classification CRS-R Test Name Terminology", "type": "Code List"}, "rootItem": {"href": "/mdr/root/ct/sdtmct/codelists/C124683", "title": "Version-agnostic anchor resource for codelist C124683", "type": "Root Value Domain"}, "self": {"href": "/mdr/ct/packages/sdtmct-2020-06-26/codelists/C124683", "title": "CDISC Clinical Classification CRS-R Test Name Terminology", "type": "Code List"}}, "conceptId": "C124683", "definition": "JFK Coma Recovery Scale-Revised test name.", "extensible": "false", "name": "JFK Coma Recovery Scale-Revised Clinical Classification Test Name", "preferredTerm": "CDISC Clinical Classification CRS-R Test Name Terminology", "submissionValue": "CRSR01TN", "synonyms": ["JFK Coma Recovery Scale-Revised Clinical Classification Test Name"], "terms": [{"conceptId": "C124745", "definition": "JFK Coma Recovery Scale-Revised - Arousal scale.", "preferredTerm": "CRS-R - Arousal Scale", "submissionValue": "CRSR01-Arousal Scale", "synonyms": ["CRSR01-Arousal Scale"]}, {"conceptId": "C124740", "definition": "JFK Coma Recovery Scale-Revised - Auditory function scale.", "preferredTerm": "CRS-R - Auditory Function Scale", "submissionValue": "CRSR01-Auditory Function Scale", "synonyms": ["CRSR01-Auditory Function Scale"]}, {"conceptId": "C124744", "definition": "JFK Coma Recovery Scale-Revised - Communication scale.", "preferredTerm": "CRS-R - Communication Scale", "submissionValue": "CRSR01-Communication Scale", "synonyms": ["CRSR01-Communication Scale"]}, {"conceptId": "C124739", "definition": "JFK Coma Recovery Scale-Revised - Date of admission.", "preferredTerm": "CRS-R - Date of Admission", "submissionValue": "CRSR01-Date of Admission", "synonyms": ["CRSR01-Date of Admission"]}, {"conceptId": "C124738", "definition": "JFK Coma Recovery Scale-Revised - Date of onset.", "preferredTerm": "CRS-R - Date of Onset", "submissionValue": "CRSR01-Date of Onset", "synonyms": ["CRSR01-Date of Onset"]}, {"conceptId": "C124736", "definition": "JFK Coma Recovery Scale-Revised - Diagnosis.", "preferredTerm": "CRS-R - Diagnosis", "submissionValue": "CRSR01-Diagnosis", "synonyms": ["CRSR01-Diagnosis"]}, {"conceptId": "C124737", "definition": "JFK Coma Recovery Scale-Revised - Etiology.", "preferredTerm": "CRS-R - Etiology", "submissionValue": "CRSR01-Etiology", "synonyms": ["CRSR01-Etiology"]}, {"conceptId": "C124742", "definition": "JFK Coma Recovery Scale-Revised - Motor function scale.", "preferredTerm": "CRS-R - Motor Function Scale", "submissionValue": "CRSR01-Motor Function Scale", "synonyms": ["CRSR01-Motor Function Scale"]}, {"conceptId": "C124743", "definition": "JFK Coma Recovery Scale-Revised - Oromotor/verbal function scale.", "preferredTerm": "CRS-R - Oromotor/Verbal Function", "submissionValue": "CRSR01-Oromotor/Verbal Function", "synonyms": ["CRSR01-Oromotor/Verbal Function"]}, {"conceptId": "C124746", "definition": "JFK Coma Recovery Scale-Revised - Total score.", "preferredTerm": "CRS-R - Total Score", "submissionValue": "CRSR01-Total Score", "synonyms": ["CRSR01-Total Score"]}, {"conceptId": "C124741", "definition": "JFK Coma Recovery Scale-Revised - Visual function scale.", "preferredTerm": "CRS-R - Visual Function Scale", "submissionValue": "CRSR01-Visual Function Scale", "synonyms": ["CRSR01-Visual Function Scale"]}]}