{"_links": {"parentPackage": {"href": "/mdr/ct/packages/sdtmct-2020-06-26", "title": "SDTM Controlled Terminology Package 42 Effective 2020-06-26", "type": "Terminology"}, "priorVersion": {"href": "/mdr/ct/packages/sdtmct-2020-03-27/codelists/C128681", "title": "CDISC SDTM Gastrointestinal Test Name Terminology", "type": "Code List"}, "rootItem": {"href": "/mdr/root/ct/sdtmct/codelists/C128681", "title": "Version-agnostic anchor resource for codelist C128681", "type": "Root Value Domain"}, "self": {"href": "/mdr/ct/packages/sdtmct-2020-06-26/codelists/C128681", "title": "CDISC SDTM Gastrointestinal Test Name Terminology", "type": "Code List"}}, "conceptId": "C128681", "definition": "A terminology codelist based on the test names for physiological findings related to the gastrointestinal system.", "extensible": "true", "name": "Gastrointestinal Test Name", "preferredTerm": "CDISC SDTM Gastrointestinal Test Name Terminology", "submissionValue": "GASTRO", "synonyms": ["Gastrointestinal Test Name"], "terms": [{"conceptId": "C156503", "definition": "An indication as to whether bowel obstruction has occurred.", "preferredTerm": "Bowel Obstruction Indicator", "submissionValue": "Bowel Obstruction Indicator", "synonyms": ["Bowel Obstruction Indicator"]}, {"conceptId": "C156504", "definition": "An indication as to whether bowel perforation has occurred.", "preferredTerm": "Bowel Perforation Indicator", "submissionValue": "Bowel Perforation Indicator", "synonyms": ["Bowel Perforation Indicator"]}, {"conceptId": "C119332", "definition": "A quantitative measurement of an organ's ability to deform in response to physiological force and return to its normal shape by passive elastic recoil.", "preferredTerm": "Organ Elasticity", "submissionValue": "Elasticity", "synonyms": ["Elasticity"]}, {"conceptId": "C156505", "definition": "An indication as to whether lymphovascular invasion by tumor cells has occurred.", "preferredTerm": "Lymphovascular Invasion Indicator", "submissionValue": "Lymphovascular Invasion Indicator", "synonyms": ["Lymphovascular Invasion Indicator"]}, {"conceptId": "C139184", "definition": "A measurement of the distance between the rectal tumor and the anal margin.", "preferredTerm": "Rectal Tumor to Anal Verge Distance", "submissionValue": "Rectal Tumor to Anal Verge Distance", "synonyms": ["Rectal Tumor to Anal Verge Distance"]}]}