{"_links": {"parentPackage": {"href": "/mdr/ct/packages/sdtmct-2020-06-26", "title": "SDTM Controlled Terminology Package 42 Effective 2020-06-26", "type": "Terminology"}, "priorVersion": {"href": "/mdr/ct/packages/sdtmct-2020-03-27/codelists/C129940", "title": "CDISC SDTM Diabetic Kidney Findings About Test Code Terminology", "type": "Code List"}, "rootItem": {"href": "/mdr/root/ct/sdtmct/codelists/C129940", "title": "Version-agnostic anchor resource for codelist C129940", "type": "Root Value Domain"}, "self": {"href": "/mdr/ct/packages/sdtmct-2020-06-26/codelists/C129940", "title": "CDISC SDTM Diabetic Kidney Findings About Test Code Terminology", "type": "Code List"}}, "conceptId": "C129940", "definition": "Terminology relevant to the test codes that describe findings about a diabetic kidney disease event or intervention.", "extensible": "true", "name": "Diabetic Kidney Disease Findings About Test Code", "preferredTerm": "CDISC SDTM Diabetic Kidney Findings About Test Code Terminology", "submissionValue": "DKFATSCD", "synonyms": ["Diabetic Kidney Disease Findings About Test Code"], "terms": [{"conceptId": "C130057", "definition": "The total number of events that have occurred.", "preferredTerm": "Number of Events", "submissionValue": "EVENTNUM", "synonyms": ["Number of Events"]}]}