{"_links": {"parentPackage": {"href": "/mdr/ct/packages/sdtmct-2020-06-26", "title": "SDTM Controlled Terminology Package 42 Effective 2020-06-26", "type": "Terminology"}, "priorVersion": {"href": "/mdr/ct/packages/sdtmct-2020-03-27/codelists/C129095", "title": "CDISC Questionnaire FOSI Test Name Terminology", "type": "Code List"}, "rootItem": {"href": "/mdr/root/ct/sdtmct/codelists/C129095", "title": "Version-agnostic anchor resource for codelist C129095", "type": "Root Value Domain"}, "self": {"href": "/mdr/ct/packages/sdtmct-2020-06-26/codelists/C129095", "title": "CDISC Questionnaire FOSI Test Name Terminology", "type": "Code List"}}, "conceptId": "C129095", "definition": "Functional Assessment of Cancer Therapy-Ovarian Symptom Index test name.", "extensible": "false", "name": "Functional Assessment of Cancer Therapy-Ovarian Symptom Index Questionnaire Test Name", "preferredTerm": "CDISC Questionnaire FOSI Test Name Terminology", "submissionValue": "FAC049TN", "synonyms": ["Functional Assessment of Cancer Therapy-Ovarian Symptom Index Questionnaire Test Name"], "terms": [{"conceptId": "C129231", "definition": "Functional Assessment of Cancer Therapy-Ovarian Symptom Index - I am content with the quality of my life right now.", "preferredTerm": "FOSI - Content With Quality of My Life", "submissionValue": "FAC049-Content With Quality of My Life", "synonyms": ["FAC049-Content With Quality of My Life"]}, {"conceptId": "C129226", "definition": "Functional Assessment of Cancer Therapy-Ovarian Symptom Index - I have been vomiting.", "preferredTerm": "FOSI - I Have Been Vomiting", "submissionValue": "FAC049-I Have Been Vomiting", "synonyms": ["FAC049-I Have Been Vomiting"]}, {"conceptId": "C129232", "definition": "Functional Assessment of Cancer Therapy-Ovarian Symptom Index - I have cramps in my stomach area.", "preferredTerm": "FOSI - I Have Cramps in My Stomach Area", "submissionValue": "FAC049-I Have Cramps in My Stomach Area", "synonyms": ["FAC049-I Have Cramps in My Stomach Area"]}, {"conceptId": "C129228", "definition": "Functional Assessment of Cancer Therapy-Ovarian Symptom Index - I have nausea.", "preferredTerm": "FOSI - I Have Nausea", "submissionValue": "FAC049-I Have Nausea", "synonyms": ["FAC049-I Have Nausea"]}, {"conceptId": "C129227", "definition": "Functional Assessment of Cancer Therapy-Ovarian Symptom Index - I have pain.", "preferredTerm": "FOSI - I Have Pain", "submissionValue": "FAC049-I Have Pain", "synonyms": ["FAC049-I Have Pain"]}, {"conceptId": "C129229", "definition": "Functional Assessment of Cancer Therapy-Ovarian Symptom Index - I have swelling in my stomach area.", "preferredTerm": "FOSI - I Have Swelling in Stomach Area", "submissionValue": "FAC049-I Have Swelling in Stomach Area", "synonyms": ["FAC049-I Have Swelling in Stomach Area"]}, {"conceptId": "C129225", "definition": "Functional Assessment of Cancer Therapy-Ovarian Symptom Index - I have a lack of energy.", "preferredTerm": "FOSI - I Have a Lack of Energy", "submissionValue": "FAC049-I Have a Lack of Energy", "synonyms": ["FAC049-I Have a Lack of Energy"]}, {"conceptId": "C129230", "definition": "Functional Assessment of Cancer Therapy-Ovarian Symptom Index - I worry that my condition will get worse.", "preferredTerm": "FOSI - Worry My Condition Will Get Worse", "submissionValue": "FAC049-Worry My Condition Will Get Worse", "synonyms": ["FAC049-Worry My Condition Will Get Worse"]}]}