{"_links": {"parentPackage": {"href": "/mdr/ct/packages/sdtmct-2020-06-26", "title": "SDTM Controlled Terminology Package 42 Effective 2020-06-26", "type": "Terminology"}, "priorVersion": {"href": "/mdr/ct/packages/sdtmct-2020-03-27/codelists/C141667", "title": "CDISC Questionnaire IPAQ Long Last 7 Days Self-Administered Format Version Test Code Terminology", "type": "Code List"}, "rootItem": {"href": "/mdr/root/ct/sdtmct/codelists/C141667", "title": "Version-agnostic anchor resource for codelist C141667", "type": "Root Value Domain"}, "self": {"href": "/mdr/ct/packages/sdtmct-2020-06-26/codelists/C141667", "title": "CDISC Questionnaire IPAQ Long Last 7 Days Self-Administered Format Version Test Code Terminology", "type": "Code List"}}, "conceptId": "C141667", "definition": "International Physical Activity Questionnaire (October 2002) Long Last 7 Days Self-Administered Format test code.", "extensible": "false", "name": "International Physical Activity Questionnaire (October 2002) Long Last 7 Days Self-Administered Format Questionnaire Test Code", "preferredTerm": "CDISC Questionnaire IPAQ Long Last 7 Days Self-Administered Format Version Test Code Terminology", "submissionValue": "IPAQ03TC", "synonyms": ["International Physical Activity Questionnaire (October 2002) Long Last 7 Days Self-Administered Format Questionnaire Test Code"], "terms": [{"conceptId": "C141726", "definition": "International Physical Activity Questionnaire (October 2002) - Long Last 7 Days Self-Administered Format - Do you currently have a job or do any unpaid work outside your home?", "preferredTerm": "IPAQ Long Last 7 Days Self-Administered Format Version - Currently Have Job or Unpaid Work", "submissionValue": "IPA0301", "synonyms": ["IPA03-Currently Have Job or Unpaid Work"]}, {"conceptId": "C141727", "definition": "International Physical Activity Questionnaire (October 2002) - Long Last 7 Days Self-Administered Format - During the last 7 days, on how many days did you do vigorous physical activities like heavy lifting, digging, heavy construction, or climbing up stairs as part of your work?: days per week.", "preferredTerm": "IPAQ Long Last 7 Days Self-Administered Format Version - Days Vigorous as Part of Work", "submissionValue": "IPA0302", "synonyms": ["IPA03-Days Vigorous as Part of Work"]}, {"conceptId": "C141729", "definition": "International Physical Activity Questionnaire (October 2002) - Long Last 7 Days Self-Administered Format - How much time did you usually spend on one of those days doing vigorous physical activities as part of your work?: hours per day.", "preferredTerm": "IPAQ Long Last 7 Days Self-Administered Format Version - Vigorous Work Hours per Day", "submissionValue": "IPA0303A", "synonyms": ["IPA03-Vigorous Work Hours per Day"]}, {"conceptId": "C141730", "definition": "International Physical Activity Questionnaire (October 2002) - Long Last 7 Days Self-Administered Format - How much time did you usually spend on one of those days doing vigorous physical activities as part of your work?: minutes per day.", "preferredTerm": "IPAQ Long Last 7 Days Self-Administered Format Version - Vigorous Work Minutes per Day", "submissionValue": "IPA0303B", "synonyms": ["IPA03-Vigorous Work Minutes per Day"]}, {"conceptId": "C141731", "definition": "International Physical Activity Questionnaire (October 2002) - Long Last 7 Days Self-Administered Format - During the last 7 days, on how many days did you do moderate physical activities like carrying light loads as part of your work?: days per week.", "preferredTerm": "IPAQ Long Last 7 Days Self-Administered Format Version - Days Moderate as Part of Work", "submissionValue": "IPA0304", "synonyms": ["IPA03-Days Moderate as Part of Work"]}, {"conceptId": "C141733", "definition": "International Physical Activity Questionnaire (October 2002) - Long Last 7 Days Self-Administered Format - How much time did you usually spend on one of those days doing moderate physical activities as part of your work?: hours per day.", "preferredTerm": "IPAQ Long Last 7 Days Self-Administered Format Version - Moderate Work Hours per Day", "submissionValue": "IPA0305A", "synonyms": ["IPA03-Moderate Work Hours per Day"]}, {"conceptId": "C141734", "definition": "International Physical Activity Questionnaire (October 2002) - Long Last 7 Days Self-Administered Format - How much time did you usually spend on one of those days doing moderate physical activities as part of your work?: minutes per day.", "preferredTerm": "IPAQ Long Last 7 Days Self-Administered Format Version - Moderate Work Minutes per Day", "submissionValue": "IPA0305B", "synonyms": ["IPA03-Moderate Work Minutes per Day"]}, {"conceptId": "C141735", "definition": "International Physical Activity Questionnaire (October 2002) - Long Last 7 Days Self-Administered Format - During the last 7 days, on how many days did you walk for at least 10 minutes at a time as part of your work?: days per week.", "preferredTerm": "IPAQ Long Last 7 Days Self-Administered Format Version - Days Walk as Part of Your Work", "submissionValue": "IPA0306", "synonyms": ["IPA03-Days Walk as Part of Your Work"]}, {"conceptId": "C141737", "definition": "International Physical Activity Questionnaire (October 2002) - Long Last 7 Days Self-Administered Format - How much time did you usually spend on one of those days walking as part of your work?: hours per day.", "preferredTerm": "IPAQ Long Last 7 Days Self-Administered Format Version - Walking Work Hours per Day", "submissionValue": "IPA0307A", "synonyms": ["IPA03-Walking Work Hours per Day"]}, {"conceptId": "C141738", "definition": "International Physical Activity Questionnaire (October 2002) - Long Last 7 Days Self-Administered Format - How much time did you usually spend on one of those days walking as part of your work?: minutes per day.", "preferredTerm": "IPAQ Long Last 7 Days Self-Administered Format Version - Walking Work Minutes per Day", "submissionValue": "IPA0307B", "synonyms": ["IPA03-Walking Work Minutes per Day"]}, {"conceptId": "C141739", "definition": "International Physical Activity Questionnaire (October 2002) - Long Last 7 Days Self-Administered Format - During the last 7 days, on how many days did you travel in a motor vehicle like a train, bus, car or tram?: days per week.", "preferredTerm": "IPAQ Long Last 7 Days Self-Administered Format Version - Days Travel in a Motor Vehicle", "submissionValue": "IPA0308", "synonyms": ["IPA03-Days Travel in a Motor Vehicle"]}, {"conceptId": "C141741", "definition": "International Physical Activity Questionnaire (October 2002) - Long Last 7 Days Self-Administered Format - How much time did you usually spend on one of those days traveling in a train, bus, car, tram, or other kind of motor vehicle?: hours per day.", "preferredTerm": "IPAQ Long Last 7 Days Self-Administered Format Version - Traveling Hours per Day", "submissionValue": "IPA0309A", "synonyms": ["IPA03-Traveling Hours per Day"]}, {"conceptId": "C141742", "definition": "International Physical Activity Questionnaire (October 2002) - Long Last 7 Days Self-Administered Format - How much time did you usually spend on one of those days traveling in a train, bus, car, tram, or other kind of motor vehicle?: minutes per day.", "preferredTerm": "IPAQ Long Last 7 Days Self-Administered Format Version - Traveling Minutes per Day", "submissionValue": "IPA0309B", "synonyms": ["IPA03-Traveling Minutes per Day"]}, {"conceptId": "C141743", "definition": "International Physical Activity Questionnaire (October 2002) - Long Last 7 Days Self-Administered Format - During the last 7 days, on how many days did you bicycle for at least 10 minutes at a time to go from place to place?: days per week.", "preferredTerm": "IPAQ Long Last 7 Days Self-Administered Format Version - Days Bicycle Place to Place", "submissionValue": "IPA0310", "synonyms": ["IPA03-Days Bicycle Place to Place"]}, {"conceptId": "C141745", "definition": "International Physical Activity Questionnaire (October 2002) - Long Last 7 Days Self-Administered Format - How much time did you usually spend on one of those days to bicycle from place to place?: hours per day.", "preferredTerm": "IPAQ Long Last 7 Days Self-Administered Format Version - Bicycle Hours per Day", "submissionValue": "IPA0311A", "synonyms": ["IPA03-Bicycle Hours per Day"]}, {"conceptId": "C141746", "definition": "International Physical Activity Questionnaire (October 2002) - Long Last 7 Days Self-Administered Format - How much time did you usually spend on one of those days to bicycle from place to place?: minutes per day.", "preferredTerm": "IPAQ Long Last 7 Days Self-Administered Format Version - Bicycle Minutes per Day", "submissionValue": "IPA0311B", "synonyms": ["IPA03-Bicycle Minutes per Day"]}, {"conceptId": "C141747", "definition": "International Physical Activity Questionnaire (October 2002) - Long Last 7 Days Self-Administered Format - During the last 7 days, on how many days did you walk for at least 10 minutes at a time to go from place to place?: days per week.", "preferredTerm": "IPAQ Long Last 7 Days Self-Administered Format Version - Days Walk Place to Place", "submissionValue": "IPA0312", "synonyms": ["IPA03-Days Walk Place to Place"]}, {"conceptId": "C141749", "definition": "International Physical Activity Questionnaire (October 2002) - Long Last 7 Days Self-Administered Format - How much time did you usually spend on one of those days walking from place to place?: hours per day.", "preferredTerm": "IPAQ Long Last 7 Days Self-Administered Format Version - Walking Place Hours per Day", "submissionValue": "IPA0313A", "synonyms": ["IPA03-Walking Place Hours per Day"]}, {"conceptId": "C141750", "definition": "International Physical Activity Questionnaire (October 2002) - Long Last 7 Days Self-Administered Format - How much time did you usually spend on one of those days walking from place to place?: minutes per day.", "preferredTerm": "IPAQ Long Last 7 Days Self-Administered Format Version - Walking Place Minutes per Day", "submissionValue": "IPA0313B", "synonyms": ["IPA03-Walking Place Minutes per Day"]}, {"conceptId": "C141751", "definition": "International Physical Activity Questionnaire (October 2002) - Long Last 7 Days Self-Administered Format - During the last 7 days, on how many days did you do vigorous physical activities like heavy lifting, chopping wood, shoveling snow, or digging in the garden or yard?: days per week.", "preferredTerm": "IPAQ Long Last 7 Days Self-Administered Format Version - Days Vigorous in the Garden/Yard", "submissionValue": "IPA0314", "synonyms": ["IPA03-Days Vigorous in the Garden/Yard"]}, {"conceptId": "C141753", "definition": "International Physical Activity Questionnaire (October 2002) - Long Last 7 Days Self-Administered Format - How much time did you usually spend on one of those days doing vigorous physical activities in the garden or yard?: hours per day.", "preferredTerm": "IPAQ Long Last 7 Days Self-Administered Format Version - Vigorous Garden Hours per Day", "submissionValue": "IPA0315A", "synonyms": ["IPA03-Vigorous Garden Hours per Day"]}, {"conceptId": "C141754", "definition": "International Physical Activity Questionnaire (October 2002) - Long Last 7 Days Self-Administered Format - How much time did you usually spend on one of those days doing vigorous physical activities in the garden or yard?: minutes per day.", "preferredTerm": "IPAQ Long Last 7 Days Self-Administered Format Version - Vigorous Garden Minutes per Day", "submissionValue": "IPA0315B", "synonyms": ["IPA03-Vigorous Garden Minutes per Day"]}, {"conceptId": "C141755", "definition": "International Physical Activity Questionnaire (October 2002) - Long Last 7 Days Self-Administered Format - During the last 7 days, on how many days did you do moderate activities like carrying light loads, sweeping, washing windows, and raking in the garden or yard?: days per week.", "preferredTerm": "IPAQ Long Last 7 Days Self-Administered Format Version - Days Moderate in the Garden/Yard", "submissionValue": "IPA0316", "synonyms": ["IPA03-Days Moderate in the Garden/Yard"]}, {"conceptId": "C141757", "definition": "International Physical Activity Questionnaire (October 2002) - Long Last 7 Days Self-Administered Format - How much time did you usually spend on one of those days doing moderate physical activities in the garden or yard?: hours per day.", "preferredTerm": "IPAQ Long Last 7 Days Self-Administered Format Version - Moderate Garden Hours per Day", "submissionValue": "IPA0317A", "synonyms": ["IPA03-Moderate Garden Hours per Day"]}, {"conceptId": "C141758", "definition": "International Physical Activity Questionnaire (October 2002) - Long Last 7 Days Self-Administered Format - How much time did you usually spend on one of those days doing moderate physical activities in the garden or yard?: minutes per day.", "preferredTerm": "IPAQ Long Last 7 Days Self-Administered Format Version - Moderate Garden Minutes per Day", "submissionValue": "IPA0317B", "synonyms": ["IPA03-Moderate Garden Minutes per Day"]}, {"conceptId": "C141759", "definition": "International Physical Activity Questionnaire (October 2002) - Long Last 7 Days Self-Administered Format - During the last 7 days, on how many days did you do moderate activities like carrying light loads, washing windows, scrubbing floors and sweeping inside your home?: days per week.", "preferredTerm": "IPAQ Long Last 7 Days Self-Administered Format Version - Days Moderate Inside Home", "submissionValue": "IPA0318", "synonyms": ["IPA03-Days Moderate Inside Home"]}, {"conceptId": "C141761", "definition": "International Physical Activity Questionnaire (October 2002) - Long Last 7 Days Self-Administered Format - How much time did you usually spend on one of those days doing moderate physical activities inside your home?: hours per day.", "preferredTerm": "IPAQ Long Last 7 Days Self-Administered Format Version - Moderate Home Hours per Day", "submissionValue": "IPA0319A", "synonyms": ["IPA03-Moderate Home Hours per Day"]}, {"conceptId": "C141762", "definition": "International Physical Activity Questionnaire (October 2002) - Long Last 7 Days Self-Administered Format - How much time did you usually spend on one of those days doing moderate physical activities inside your home?: minutes per day.", "preferredTerm": "IPAQ Long Last 7 Days Self-Administered Format Version - Moderate Home Minutes per Day", "submissionValue": "IPA0319B", "synonyms": ["IPA03-Moderate Home Minutes per Day"]}, {"conceptId": "C141763", "definition": "International Physical Activity Questionnaire (October 2002) - Long Last 7 Days Self-Administered Format - During the last 7 days, on how many days did you walk for at least 10 minutes at a time in your leisure time?: days per week.", "preferredTerm": "IPAQ Long Last 7 Days Self-Administered Format Version - Days Walk in Leisure Time", "submissionValue": "IPA0320", "synonyms": ["IPA03-Days Walk in Leisure Time"]}, {"conceptId": "C141765", "definition": "International Physical Activity Questionnaire (October 2002) - Long Last 7 Days Self-Administered Format - How much time did you usually spend on one of those days walking in your leisure time?: hours per day.", "preferredTerm": "IPAQ Long Last 7 Days Self-Administered Format Version - Walking Leisure Hours per Day", "submissionValue": "IPA0321A", "synonyms": ["IPA03-Walking Leisure Hours per Day"]}, {"conceptId": "C141766", "definition": "International Physical Activity Questionnaire (October 2002) - Long Last 7 Days Self-Administered Format - How much time did you usually spend on one of those days walking in your leisure time?: minutes per day.", "preferredTerm": "IPAQ Long Last 7 Days Self-Administered Format Version - Walking Leisure Minutes per Day", "submissionValue": "IPA0321B", "synonyms": ["IPA03-Walking Leisure Minutes per Day"]}, {"conceptId": "C141767", "definition": "International Physical Activity Questionnaire (October 2002) - Long Last 7 Days Self-Administered Format - During the last 7 days, on how many days did you do vigorous physical activities like aerobics, running, fast bicycling, or fast swimming in your leisure time?: days per week.", "preferredTerm": "IPAQ Long Last 7 Days Self-Administered Format Version - Days Vigorous in Leisure Time", "submissionValue": "IPA0322", "synonyms": ["IPA03-Days Vigorous in Leisure Time"]}, {"conceptId": "C141769", "definition": "International Physical Activity Questionnaire (October 2002) - Long Last 7 Days Self-Administered Format - How much time did you usually spend on one of those days doing vigorous physical activities in your leisure time?: hours per day.", "preferredTerm": "IPAQ Long Last 7 Days Self-Administered Format Version - Vigorous Leisure Hours per Day", "submissionValue": "IPA0323A", "synonyms": ["IPA03-Vigorous Leisure Hours per Day"]}, {"conceptId": "C141770", "definition": "International Physical Activity Questionnaire (October 2002) - Long Last 7 Days Self-Administered Format - How much time did you usually spend on one of those days doing vigorous physical activities in your leisure time?: minutes per day.", "preferredTerm": "IPAQ Long Last 7 Days Self-Administered Format Version - Vigorous Leisure Minutes per Day", "submissionValue": "IPA0323B", "synonyms": ["IPA03-Vigorous Leisure Minutes per Day"]}, {"conceptId": "C141771", "definition": "International Physical Activity Questionnaire (October 2002) - Long Last 7 Days Self-Administered Format - During the last 7 days, on how many days did you do moderate physical activities like bicycling at a regular pace, swimming at a regular pace, and doubles tennis in your leisure time?: days per week.", "preferredTerm": "IPAQ Long Last 7 Days Self-Administered Format Version - Days Moderate in Leisure Time", "submissionValue": "IPA0324", "synonyms": ["IPA03-Days Moderate in Leisure Time"]}, {"conceptId": "C141773", "definition": "International Physical Activity Questionnaire (October 2002) - Long Last 7 Days Self-Administered Format - How much time did you usually spend on one of those days doing moderate physical activities in your leisure time?: hours per day.", "preferredTerm": "IPAQ Long Last 7 Days Self-Administered Format Version - Moderate Leisure Hours per Day", "submissionValue": "IPA0325A", "synonyms": ["IPA03-Moderate Leisure Hours per Day"]}, {"conceptId": "C141774", "definition": "International Physical Activity Questionnaire (October 2002) - Long Last 7 Days Self-Administered Format - How much time did you usually spend on one of those days doing moderate physical activities in your leisure time?: minutes per day.", "preferredTerm": "IPAQ Long Last 7 Days Self-Administered Format Version - Moderate Leisure Minutes per Day", "submissionValue": "IPA0325B", "synonyms": ["IPA03-Moderate Leisure Minutes per Day"]}, {"conceptId": "C141775", "definition": "International Physical Activity Questionnaire (October 2002) - Long Last 7 Days Self-Administered Format - During the last 7 days, how much time did you usually spend sitting on a weekday?: hours per day.", "preferredTerm": "IPAQ Long Last 7 Days Self-Administered Format Version - Sitting Weekday Hours per Day", "submissionValue": "IPA0326A", "synonyms": ["IPA03-Sitting Weekday Hours per Day"]}, {"conceptId": "C141776", "definition": "International Physical Activity Questionnaire (October 2002) - Long Last 7 Days Self-Administered Format - During the last 7 days, how much time did you usually spend sitting on a weekday?: minutes per day.", "preferredTerm": "IPAQ Long Last 7 Days Self-Administered Format Version - Sitting Weekday Minutes per Day", "submissionValue": "IPA0326B", "synonyms": ["IPA03-Sitting Weekday Minutes per Day"]}, {"conceptId": "C141777", "definition": "International Physical Activity Questionnaire (October 2002) - Long Last 7 Days Self-Administered Format - During the last 7 days, how much time did you usually spend sitting on a weekend day?: hours per day.", "preferredTerm": "IPAQ Long Last 7 Days Self-Administered Format Version - Sitting Weekend Hours per Day", "submissionValue": "IPA0327A", "synonyms": ["IPA03-Sitting Weekend Hours per Day"]}, {"conceptId": "C141778", "definition": "International Physical Activity Questionnaire (October 2002) - Long Last 7 Days Self-Administered Format - During the last 7 days, how much time did you usually spend sitting on a weekend day?: minutes per day.", "preferredTerm": "IPAQ Long Last 7 Days Self-Administered Format Version - Sitting Weekend Minutes per Day", "submissionValue": "IPA0327B", "synonyms": ["IPA03-Sitting Weekend Minutes per Day"]}]}