{"_links": {"parentPackage": {"href": "/mdr/ct/packages/sdtmct-2020-06-26", "title": "SDTM Controlled Terminology Package 42 Effective 2020-06-26", "type": "Terminology"}, "priorVersion": {"href": "/mdr/ct/packages/sdtmct-2020-03-27/codelists/C141665", "title": "CDISC Questionnaire IPAQ Short Last 7 Days Self-administered Format Version Test Code Terminology", "type": "Code List"}, "rootItem": {"href": "/mdr/root/ct/sdtmct/codelists/C141665", "title": "Version-agnostic anchor resource for codelist C141665", "type": "Root Value Domain"}, "self": {"href": "/mdr/ct/packages/sdtmct-2020-06-26/codelists/C141665", "title": "CDISC Questionnaire IPAQ Short Last 7 Days Self-administered Format Version Test Code Terminology", "type": "Code List"}}, "conceptId": "C141665", "definition": "International Physical Activity Questionnaire (August 2002) Short Last 7 Days Self-Administered Format test code.", "extensible": "false", "name": "International Physical Activity Questionnaire (August 2002) Short Last 7 Days Self-Administered Format Questionnaire Test Code", "preferredTerm": "CDISC Questionnaire IPAQ Short Last 7 Days Self-administered Format Version Test Code Terminology", "submissionValue": "IPAQ04TC", "synonyms": ["International Physical Activity Questionnaire (August 2002) Short Last 7 Days Self-Administered Format Questionnaire Test Code"], "terms": [{"conceptId": "C141708", "definition": "International Physical Activity Questionnaire (August 2002) - Short Last 7 Days Self-Administered Format - During the last 7 days, on how many days did you do vigorous physical activities like heavy lifting, digging, aerobics, or fast bicycling?: days per week.", "preferredTerm": "IPAQ Short Last 7 Days Self-administered Format Version - Days Vigorous Physical Activities", "submissionValue": "IPA0401", "synonyms": ["IPA04-Days Vigorous Physical Activities"]}, {"conceptId": "C141710", "definition": "International Physical Activity Questionnaire (August 2002) - Short Last 7 Days Self-Administered Format - How much time did you usually spend doing vigorous physical activities on one of those days?: hours per day.", "preferredTerm": "IPAQ Short Last 7 Days Self-administered Format Version - Vigorous Physical Hours per Day", "submissionValue": "IPA0402A", "synonyms": ["IPA04-Vigorous Physical Hours per Day"]}, {"conceptId": "C141711", "definition": "International Physical Activity Questionnaire (August 2002) - Short Last 7 Days Self-Administered Format - How much time did you usually spend doing vigorous physical activities on one of those days?: minutes per day.", "preferredTerm": "IPAQ Short Last 7 Days Self-administered Format Version - Vigorous Physical Minutes per Day", "submissionValue": "IPA0402B", "synonyms": ["IPA04-Vigorous Physical Minutes per Day"]}, {"conceptId": "C141713", "definition": "International Physical Activity Questionnaire (August 2002) - Short Last 7 Days Self-Administered Format - During the last 7 days, on how many days did you do moderate physical activities like carrying light loads, bicycling at a regular pace, or doubles tennis?: days per week.", "preferredTerm": "IPAQ Short Last 7 Days Self-administered Format Version - Days Moderate Physical Activities", "submissionValue": "IPA0403", "synonyms": ["IPA04-Days Moderate Physical Activities"]}, {"conceptId": "C141715", "definition": "International Physical Activity Questionnaire (August 2002) - Short Last 7 Days Self-Administered Format - How much time did you usually spend doing moderate physical activities on one of those days?: hours per day.", "preferredTerm": "IPAQ Short Last 7 Days Self-administered Format Version - Moderate Physical Hours per Day", "submissionValue": "IPA0404A", "synonyms": ["IPA04-Moderate Physical Hours per Day"]}, {"conceptId": "C141716", "definition": "International Physical Activity Questionnaire (August 2002) - Short Last 7 Days Self-Administered Format - How much time did you usually spend doing moderate physical activities on one of those days?: minutes per day.", "preferredTerm": "IPAQ Short Last 7 Days Self-administered Format Version - Moderate Physical Minutes per Day", "submissionValue": "IPA0404B", "synonyms": ["IPA04-Moderate Physical Minutes per Day"]}, {"conceptId": "C141718", "definition": "International Physical Activity Questionnaire (August 2002) - Short Last 7 Days Self-Administered Format - During the last 7 days, on how many days did you walk for at least 10 minutes at a time?: days per week.", "preferredTerm": "IPAQ Short Last 7 Days Self-administered Format Version - Days Walk at Least 10 Minutes", "submissionValue": "IPA0405", "synonyms": ["IPA04-Days Walk at Least 10 Minutes"]}, {"conceptId": "C141720", "definition": "International Physical Activity Questionnaire (August 2002) - Short Last 7 Days Self-Administered Format - How much time did you usually spend walking on one of those days?: hours per day.", "preferredTerm": "IPAQ Short Last 7 Days Self-administered Format Version - Walking Hours per Day", "submissionValue": "IPA0406A", "synonyms": ["IPA04-Walking Hours per Day"]}, {"conceptId": "C141721", "definition": "International Physical Activity Questionnaire (August 2002) - Short Last 7 Days Self-Administered Format - How much time did you usually spend walking on one of those days?: minutes per day.", "preferredTerm": "IPAQ Short Last 7 Days Self-administered Format Version - Walking Minutes per Day", "submissionValue": "IPA0406B", "synonyms": ["IPA04-Walking Minutes per Day"]}, {"conceptId": "C141723", "definition": "International Physical Activity Questionnaire (August 2002) - Short Last 7 Days Self-Administered Format - During the last 7 days, how much time did you spend sitting on a weekday?: hours per day.", "preferredTerm": "IPAQ Short Last 7 Days Self-administered Format Version - Sitting Weekday Hours per Day", "submissionValue": "IPA0407A", "synonyms": ["IPA04-Sitting Weekday Hours per Day"]}, {"conceptId": "C141724", "definition": "International Physical Activity Questionnaire (August 2002) - Short Last 7 Days Self-Administered Format - During the last 7 days, how much time did you spend sitting on a weekday?: minutes per day.", "preferredTerm": "IPAQ Short Last 7 Days Self-administered Format Version - Sitting Weekday Minutes per Day", "submissionValue": "IPA0407B", "synonyms": ["IPA04-Sitting Weekday Minutes per Day"]}]}