{"_links": {"parentPackage": {"href": "/mdr/ct/packages/sdtmct-2020-06-26", "title": "SDTM Controlled Terminology Package 42 Effective 2020-06-26", "type": "Terminology"}, "priorVersion": {"href": "/mdr/ct/packages/sdtmct-2020-03-27/codelists/C147544", "title": "CDISC Questionnaire FACIT-Fatigue 13-Item Version 4 Test Code Terminology", "type": "Code List"}, "rootItem": {"href": "/mdr/root/ct/sdtmct/codelists/C147544", "title": "Version-agnostic anchor resource for codelist C147544", "type": "Root Value Domain"}, "self": {"href": "/mdr/ct/packages/sdtmct-2020-06-26/codelists/C147544", "title": "CDISC Questionnaire FACIT-Fatigue 13-Item Version 4 Test Code Terminology", "type": "Code List"}}, "conceptId": "C147544", "definition": "Functional Assessment of Chronic Illness Therapy-Fatigue 13-Item Scale Version 4 test code.", "extensible": "false", "name": "Functional Assessment of Chronic Illness Therapy-Fatigue 13-Item Scale Version 4 Questionnaire Test Code", "preferredTerm": "CDISC Questionnaire FACIT-Fatigue 13-Item Version 4 Test Code Terminology", "submissionValue": "FAC070TC", "synonyms": ["Functional Assessment of Chronic Illness Therapy-Fatigue 13-Item Scale Version 4 Questionnaire Test Code"], "terms": [{"conceptId": "C147673", "definition": "Functional Assessment of Chronic Illness Therapy-Fatigue 13-Item Scale Version 4 - I feel fatigued.", "preferredTerm": "FACIT-Fatigue 13-Item Version 4 - I Feel Fatigued", "submissionValue": "FAC07001", "synonyms": ["FAC070-I Feel Fatigued"]}, {"conceptId": "C147674", "definition": "Functional Assessment of Chronic Illness Therapy-Fatigue 13-Item Scale Version 4 - I feel weak all over.", "preferredTerm": "FACIT-Fatigue 13-Item Version 4 - I Feel Weak All Over", "submissionValue": "FAC07002", "synonyms": ["FAC070-I Feel Weak All Over"]}, {"conceptId": "C147675", "definition": "Functional Assessment of Chronic Illness Therapy-Fatigue 13-Item Scale Version 4 - I feel listless (\"washed out\").", "preferredTerm": "FACIT-Fatigue 13-Item Version 4 - I Feel Listless", "submissionValue": "FAC07003", "synonyms": ["FAC070-I Feel Listless"]}, {"conceptId": "C147676", "definition": "Functional Assessment of Chronic Illness Therapy-Fatigue 13-Item Scale Version 4 - I feel tired.", "preferredTerm": "FACIT-Fatigue 13-Item Version 4 - I Feel Tired", "submissionValue": "FAC07004", "synonyms": ["FAC070-I Feel Tired"]}, {"conceptId": "C147677", "definition": "Functional Assessment of Chronic Illness Therapy-Fatigue 13-Item Scale Version 4 - I have trouble starting things because I am tired.", "preferredTerm": "FACIT-Fatigue 13-Item Version 4 - Trouble Starting Things", "submissionValue": "FAC07005", "synonyms": ["FAC070-Trouble Starting Things"]}, {"conceptId": "C147678", "definition": "Functional Assessment of Chronic Illness Therapy-Fatigue 13-Item Scale Version 4 - I have trouble finishing things because I am tired.", "preferredTerm": "FACIT-Fatigue 13-Item Version 4 - Trouble Finishing Things", "submissionValue": "FAC07006", "synonyms": ["FAC070-Trouble Finishing Things"]}, {"conceptId": "C147679", "definition": "Functional Assessment of Chronic Illness Therapy-Fatigue 13-Item Scale Version 4 - I have energy.", "preferredTerm": "FACIT-Fatigue 13-Item Version 4 - I Have Energy", "submissionValue": "FAC07007", "synonyms": ["FAC070-I Have Energy"]}, {"conceptId": "C147680", "definition": "Functional Assessment of Chronic Illness Therapy-Fatigue 13-Item Scale Version 4 - I am able to do my usual activities.", "preferredTerm": "FACIT-Fatigue 13-Item Version 4 - Able to Do My Usual Activities", "submissionValue": "FAC07008", "synonyms": ["FAC070-Able to Do My Usual Activities"]}, {"conceptId": "C147681", "definition": "Functional Assessment of Chronic Illness Therapy-Fatigue 13-Item Scale Version 4 - I need to sleep during the day.", "preferredTerm": "FACIT-Fatigue 13-Item Version 4 - I Need to Sleep During the Day", "submissionValue": "FAC07009", "synonyms": ["FAC070-I Need to Sleep During the Day"]}, {"conceptId": "C147682", "definition": "Functional Assessment of Chronic Illness Therapy-Fatigue 13-Item Scale Version 4 - I am too tired to eat.", "preferredTerm": "FACIT-Fatigue 13-Item Version 4 - I Am Too Tired to Eat", "submissionValue": "FAC07010", "synonyms": ["FAC070-I Am Too Tired to Eat"]}, {"conceptId": "C147683", "definition": "Functional Assessment of Chronic Illness Therapy-Fatigue 13-Item Scale Version 4 - I need help doing my usual activities.", "preferredTerm": "FACIT-Fatigue 13-Item Version 4 - Need Help Doing Usual Activities", "submissionValue": "FAC07011", "synonyms": ["FAC070-Need Help Doing Usual Activities"]}, {"conceptId": "C147684", "definition": "Functional Assessment of Chronic Illness Therapy-Fatigue 13-Item Scale Version 4 - I am frustrated by being too tired to do the things I want to do.", "preferredTerm": "FACIT-Fatigue 13-Item Version 4 - Frustrated by Being Too Tired", "submissionValue": "FAC07012", "synonyms": ["FAC070-Frustrated by Being Too Tired"]}, {"conceptId": "C147685", "definition": "Functional Assessment of Chronic Illness Therapy-Fatigue 13-Item Scale Version 4 - I have to limit my social activity because I am tired.", "preferredTerm": "FACIT-Fatigue 13-Item Version 4 - Limit Social Activity, I am Tired", "submissionValue": "FAC07013", "synonyms": ["FAC070-Limit Social Activity, I am Tired"]}, {"conceptId": "C163947", "definition": "Functional Assessment of Chronic Illness Therapy-Fatigue 13-Item Scale Version 4 - Fatigue subscale score.", "preferredTerm": "FACIT-Fatigue 13-Item Version 4 - Fatigue Subscale Score", "submissionValue": "FAC07014", "synonyms": ["FAC070-Fatigue Subscale Score"]}]}