{"_links": {"parentPackage": {"href": "/mdr/ct/packages/sdtmct-2020-06-26", "title": "SDTM Controlled Terminology Package 42 Effective 2020-06-26", "type": "Terminology"}, "priorVersion": {"href": "/mdr/ct/packages/sdtmct-2020-03-27/codelists/C150781", "title": "CDISC Questionnaire FACT-L Version 4 Test Name Terminology", "type": "Code List"}, "rootItem": {"href": "/mdr/root/ct/sdtmct/codelists/C150781", "title": "Version-agnostic anchor resource for codelist C150781", "type": "Root Value Domain"}, "self": {"href": "/mdr/ct/packages/sdtmct-2020-06-26/codelists/C150781", "title": "CDISC Questionnaire FACT-L Version 4 Test Name Terminology", "type": "Code List"}}, "conceptId": "C150781", "definition": "Functional Assessment of Cancer Therapy-Lung Version 4 test name.", "extensible": "false", "name": "Functional Assessment of Cancer Therapy-Lung Version 4 Questionnaire Test Name", "preferredTerm": "CDISC Questionnaire FACT-L Version 4 Test Name Terminology", "submissionValue": "FAC016TN", "synonyms": ["Functional Assessment of Cancer Therapy-Lung Version 4 Questionnaire Test Name"], "terms": [{"conceptId": "C151238", "definition": "Functional Assessment of Cancer Therapy-Lung Version 4 - Physical Well-Being: I am bothered by side effects of treatment.", "preferredTerm": "FACT-L Version 4 - Bothered by Treatment Side Effect", "submissionValue": "FAC016-Bothered by Treatment Side Effect", "synonyms": ["FAC016-Bothered by Treatment Side Effect"]}, {"conceptId": "C151268", "definition": "Functional Assessment of Cancer Therapy-Lung Version 4 - Additional Concerns: Breathing is easy for me.", "preferredTerm": "FACT-L Version 4 - Breathing Is Easy for Me", "submissionValue": "FAC016-Breathing Is Easy for Me", "synonyms": ["FAC016-Breathing Is Easy for Me"]}, {"conceptId": "C151260", "definition": "Functional Assessment of Cancer Therapy-Lung Version 4 - Functional Well-Being: I am content with the quality of my life right now.", "preferredTerm": "FACT-L Version 4 - Content With Quality of My Life", "submissionValue": "FAC016-Content With Quality of My Life", "synonyms": ["FAC016-Content With Quality of My Life"]}, {"conceptId": "C151259", "definition": "Functional Assessment of Cancer Therapy-Lung Version 4 - Functional Well-Being: I am enjoying the things I usually do for fun.", "preferredTerm": "FACT-L Version 4 - Enjoy Things I Usually Do for Fun", "submissionValue": "FAC016-Enjoy Things I Usually Do for Fun", "synonyms": ["FAC016-Enjoy Things I Usually Do for Fun"]}, {"conceptId": "C151242", "definition": "Functional Assessment of Cancer Therapy-Lung Version 4 - Social/Family Well-Being: I get emotional support from my family.", "preferredTerm": "FACT-L Version 4 - Get Emotional Support From Family", "submissionValue": "FAC016-Get Emotional Support From Family", "synonyms": ["FAC016-Get Emotional Support From Family"]}, {"conceptId": "C151269", "definition": "Functional Assessment of Cancer Therapy-Lung Version 4 - Additional Concerns: Have you ever smoked?", "preferredTerm": "FACT-L Version 4 - Have You Ever Smoked", "submissionValue": "FAC016-Have You Ever Smoked", "synonyms": ["FAC016-Have You Ever Smoked"]}, {"conceptId": "C151256", "definition": "Functional Assessment of Cancer Therapy-Lung Version 4 - Functional Well-Being: I am able to enjoy life.", "preferredTerm": "FACT-L Version 4 - I Am Able to Enjoy Life", "submissionValue": "FAC016-I Am Able to Enjoy Life", "synonyms": ["FAC016-I Am Able to Enjoy Life"]}, {"conceptId": "C151254", "definition": "Functional Assessment of Cancer Therapy-Lung Version 4 - Functional Well-Being: I am able to work (include work at home).", "preferredTerm": "FACT-L Version 4 - I Am Able to Work", "submissionValue": "FAC016-I Am Able to Work", "synonyms": ["FAC016-I Am Able to Work"]}, {"conceptId": "C151265", "definition": "Functional Assessment of Cancer Therapy-Lung Version 4 - Additional Concerns: I am bothered by hair loss.", "preferredTerm": "FACT-L Version 4 - I Am Bothered by Hair Loss", "submissionValue": "FAC016-I Am Bothered by Hair Loss", "synonyms": ["FAC016-I Am Bothered by Hair Loss"]}, {"conceptId": "C151262", "definition": "Functional Assessment of Cancer Therapy-Lung Version 4 - Additional Concerns: I am losing weight.", "preferredTerm": "FACT-L Version 4 - I Am Losing Weight", "submissionValue": "FAC016-I Am Losing Weight", "synonyms": ["FAC016-I Am Losing Weight"]}, {"conceptId": "C151247", "definition": "Functional Assessment of Cancer Therapy-Lung Version 4 - Social/Family Well-Being: I am satisfied with my sex life.", "preferredTerm": "FACT-L Version 4 - I Am Satisfied With My Sex Life", "submissionValue": "FAC016-I Am Satisfied With My Sex Life", "synonyms": ["FAC016-I Am Satisfied With My Sex Life"]}, {"conceptId": "C151258", "definition": "Functional Assessment of Cancer Therapy-Lung Version 4 - Functional Well-Being: I am sleeping well.", "preferredTerm": "FACT-L Version 4 - I Am Sleeping Well", "submissionValue": "FAC016-I Am Sleeping Well", "synonyms": ["FAC016-I Am Sleeping Well"]}, {"conceptId": "C151241", "definition": "Functional Assessment of Cancer Therapy-Lung Version 4 - Social/Family Well-Being: I feel close to my friends.", "preferredTerm": "FACT-L Version 4 - I Feel Close to My Friends", "submissionValue": "FAC016-I Feel Close to My Friends", "synonyms": ["FAC016-I Feel Close to My Friends"]}, {"conceptId": "C151246", "definition": "Functional Assessment of Cancer Therapy-Lung Version 4 - Social/Family Well-Being: I feel close to my partner (or the person who is my main support).", "preferredTerm": "FACT-L Version 4 - I Feel Close to My Partner", "submissionValue": "FAC016-I Feel Close to My Partner", "synonyms": ["FAC016-I Feel Close to My Partner"]}, {"conceptId": "C151239", "definition": "Functional Assessment of Cancer Therapy-Lung Version 4 - Physical Well-Being: I feel ill.", "preferredTerm": "FACT-L Version 4 - I Feel Ill", "submissionValue": "FAC016-I Feel Ill", "synonyms": ["FAC016-I Feel Ill"]}, {"conceptId": "C151251", "definition": "Functional Assessment of Cancer Therapy-Lung Version 4 - Emotional Well-Being: I feel nervous.", "preferredTerm": "FACT-L Version 4 - I Feel Nervous", "submissionValue": "FAC016-I Feel Nervous", "synonyms": ["FAC016-I Feel Nervous"]}, {"conceptId": "C151248", "definition": "Functional Assessment of Cancer Therapy-Lung Version 4 - Emotional Well-Being: I feel sad.", "preferredTerm": "FACT-L Version 4 - I Feel Sad", "submissionValue": "FAC016-I Feel Sad", "synonyms": ["FAC016-I Feel Sad"]}, {"conceptId": "C151267", "definition": "Functional Assessment of Cancer Therapy-Lung Version 4 - Additional Concerns: I feel tightness in my chest.", "preferredTerm": "FACT-L Version 4 - I Feel Tightness in My Chest", "submissionValue": "FAC016-I Feel Tightness in My Chest", "synonyms": ["FAC016-I Feel Tightness in My Chest"]}, {"conceptId": "C151243", "definition": "Functional Assessment of Cancer Therapy-Lung Version 4 - Social/Family Well-Being: I get support from my friends.", "preferredTerm": "FACT-L Version 4 - I Get Support From My Friends", "submissionValue": "FAC016-I Get Support From My Friends", "synonyms": ["FAC016-I Get Support From My Friends"]}, {"conceptId": "C151257", "definition": "Functional Assessment of Cancer Therapy-Lung Version 4 - Functional Well-Being: I have accepted my illness.", "preferredTerm": "FACT-L Version 4 - I Have Accepted My Illness", "submissionValue": "FAC016-I Have Accepted My Illness", "synonyms": ["FAC016-I Have Accepted My Illness"]}, {"conceptId": "C151264", "definition": "Functional Assessment of Cancer Therapy-Lung Version 4 - Additional Concerns: I have been coughing.", "preferredTerm": "FACT-L Version 4 - I Have Been Coughing", "submissionValue": "FAC016-I Have Been Coughing", "synonyms": ["FAC016-I Have Been Coughing"]}, {"conceptId": "C151261", "definition": "Functional Assessment of Cancer Therapy-Lung Version 4 - Additional Concerns: I have been short of breath.", "preferredTerm": "FACT-L Version 4 - I Have Been Short of Breath", "submissionValue": "FAC016-I Have Been Short of Breath", "synonyms": ["FAC016-I Have Been Short of Breath"]}, {"conceptId": "C151235", "definition": "Functional Assessment of Cancer Therapy-Lung Version 4 - Physical Well-Being: I have nausea.", "preferredTerm": "FACT-L Version 4 - I Have Nausea", "submissionValue": "FAC016-I Have Nausea", "synonyms": ["FAC016-I Have Nausea"]}, {"conceptId": "C151237", "definition": "Functional Assessment of Cancer Therapy-Lung Version 4 - Physical Well-Being: I have pain.", "preferredTerm": "FACT-L Version 4 - I Have Pain", "submissionValue": "FAC016-I Have Pain", "synonyms": ["FAC016-I Have Pain"]}, {"conceptId": "C151266", "definition": "Functional Assessment of Cancer Therapy-Lung Version 4 - Additional Concerns: I have a good appetite.", "preferredTerm": "FACT-L Version 4 - I Have a Good Appetite", "submissionValue": "FAC016-I Have a Good Appetite", "synonyms": ["FAC016-I Have a Good Appetite"]}, {"conceptId": "C151234", "definition": "Functional Assessment of Cancer Therapy-Lung Version 4 - Physical Well-Being: I have a lack of energy.", "preferredTerm": "FACT-L Version 4 - I Have a Lack of Energy", "submissionValue": "FAC016-I Have a Lack of Energy", "synonyms": ["FAC016-I Have a Lack of Energy"]}, {"conceptId": "C151270", "definition": "Functional Assessment of Cancer Therapy-Lung Version 4 - Additional Concerns: I regret my smoking.", "preferredTerm": "FACT-L Version 4 - I Regret My Smoking", "submissionValue": "FAC016-I Regret My Smoking", "synonyms": ["FAC016-I Regret My Smoking"]}, {"conceptId": "C151252", "definition": "Functional Assessment of Cancer Therapy-Lung Version 4 - Emotional Well-Being: I worry about dying.", "preferredTerm": "FACT-L Version 4 - I Worry About Dying", "submissionValue": "FAC016-I Worry About Dying", "synonyms": ["FAC016-I Worry About Dying"]}, {"conceptId": "C151240", "definition": "Functional Assessment of Cancer Therapy-Lung Version 4 - Physical Well-Being: I am forced to spend time in bed.", "preferredTerm": "FACT-L Version 4 - I am Forced to Spend Time in Bed", "submissionValue": "FAC016-I am Forced to Spend Time in Bed", "synonyms": ["FAC016-I am Forced to Spend Time in Bed"]}, {"conceptId": "C151250", "definition": "Functional Assessment of Cancer Therapy-Lung Version 4 - Emotional Well-Being: I am losing hope in the fight against my illness.", "preferredTerm": "FACT-L Version 4 - Losing Hope Against Illness", "submissionValue": "FAC016-Losing Hope Against Illness", "synonyms": ["FAC016-Losing Hope Against Illness"]}, {"conceptId": "C151244", "definition": "Functional Assessment of Cancer Therapy-Lung Version 4 - Social/Family Well-Being: My family has accepted my illness.", "preferredTerm": "FACT-L Version 4 - My Family Has Accepted My Illness", "submissionValue": "FAC016-My Family Has Accepted My Illness", "synonyms": ["FAC016-My Family Has Accepted My Illness"]}, {"conceptId": "C151263", "definition": "Functional Assessment of Cancer Therapy-Lung Version 4 - Additional Concerns: My thinking is clear.", "preferredTerm": "FACT-L Version 4 - My Thinking Is Clear", "submissionValue": "FAC016-My Thinking Is Clear", "synonyms": ["FAC016-My Thinking Is Clear"]}, {"conceptId": "C151255", "definition": "Functional Assessment of Cancer Therapy-Lung Version 4 - Functional Well-Being: My work (include work at home) is fulfilling.", "preferredTerm": "FACT-L Version 4 - My Work Is Fulfilling", "submissionValue": "FAC016-My Work Is Fulfilling", "synonyms": ["FAC016-My Work Is Fulfilling"]}, {"conceptId": "C151245", "definition": "Functional Assessment of Cancer Therapy-Lung Version 4 - Social/Family Well-Being: I am satisfied with family communication about my illness.", "preferredTerm": "FACT-L Version 4 - Satisfied Communication Illness", "submissionValue": "FAC016-Satisfied Communication Illness", "synonyms": ["FAC016-Satisfied Communication Illness"]}, {"conceptId": "C151249", "definition": "Functional Assessment of Cancer Therapy-Lung Version 4 - Emotional Well-Being: I am satisfied with how I am coping with my illness.", "preferredTerm": "FACT-L Version 4 - Satisfied With How I Am Coping", "submissionValue": "FAC016-Satisfied With How I Am Coping", "synonyms": ["FAC016-Satisfied With How I Am Coping"]}, {"conceptId": "C151236", "definition": "Functional Assessment of Cancer Therapy-Lung Version 4 - Physical Well-Being: Because of my physical condition, I have trouble meeting the needs of my family.", "preferredTerm": "FACT-L Version 4 - Trouble Meeting Needs of Family", "submissionValue": "FAC016-Trouble Meeting Needs of Family", "synonyms": ["FAC016-Trouble Meeting Needs of Family"]}, {"conceptId": "C151253", "definition": "Functional Assessment of Cancer Therapy-Lung Version 4 - Emotional Well-Being: I worry that my condition will get worse.", "preferredTerm": "FACT-L Version 4 - Worry My Condition Will Get Worse", "submissionValue": "FAC016-Worry My Condition Will Get Worse", "synonyms": ["FAC016-Worry My Condition Will Get Worse"]}]}