{"_links": {"parentPackage": {"href": "/mdr/ct/packages/sdtmct-2020-06-26", "title": "SDTM Controlled Terminology Package 42 Effective 2020-06-26", "type": "Terminology"}, "priorVersion": {"href": "/mdr/ct/packages/sdtmct-2020-03-27/codelists/C150787", "title": "CDISC Questionnaire NCCN-FACT FHNSI-22 Version 2 Test Name Terminology", "type": "Code List"}, "rootItem": {"href": "/mdr/root/ct/sdtmct/codelists/C150787", "title": "Version-agnostic anchor resource for codelist C150787", "type": "Root Value Domain"}, "self": {"href": "/mdr/ct/packages/sdtmct-2020-06-26/codelists/C150787", "title": "CDISC Questionnaire NCCN-FACT FHNSI-22 Version 2 Test Name Terminology", "type": "Code List"}}, "conceptId": "C150787", "definition": "National Comprehensive Cancer Network/Functional Assessment of Cancer Therapy-Head & Neck Symptom Index-22 Version 2 test name.", "extensible": "false", "name": "National Comprehensive Cancer Network/Functional Assessment of Cancer Therapy-Head & Neck Symptom Index-22 Version 2 Questionnaire Test Name", "preferredTerm": "CDISC Questionnaire NCCN-FACT FHNSI-22 Version 2 Test Name Terminology", "submissionValue": "FAC036TN", "synonyms": ["National Comprehensive Cancer Network/Functional Assessment of Cancer Therapy-Head & Neck Symptom Index-22 Version 2 Questionnaire Test Name"], "terms": [{"conceptId": "C151312", "definition": "National Comprehensive Cancer Network/Functional Assessment of Cancer Therapy-Head & Neck Symptom Index-22 Version 2 - I am able to communicate with others.", "preferredTerm": "NCCN-FACT FHNSI-22 Version 2 - Able to Communicate With Others", "submissionValue": "FAC036-Able to Communicate With Others", "synonyms": ["FAC036-Able to Communicate With Others"]}, {"conceptId": "C151311", "definition": "National Comprehensive Cancer Network/Functional Assessment of Cancer Therapy-Head & Neck Symptom Index-22 Version 2 - I am able to eat the foods that I like.", "preferredTerm": "NCCN-FACT FHNSI-22 Version 2 - Able to Eat the Foods That I Like", "submissionValue": "FAC036-Able to Eat the Foods That I Like", "synonyms": ["FAC036-Able to Eat the Foods That I Like"]}, {"conceptId": "C151321", "definition": "National Comprehensive Cancer Network/Functional Assessment of Cancer Therapy-Head & Neck Symptom Index-22 Version 2 - I am bothered by side effects of treatment.", "preferredTerm": "NCCN-FACT FHNSI-22 Version 2 - Bothered by Treatment Side Effect", "submissionValue": "FAC036-Bothered by Treatment Side Effect", "synonyms": ["FAC036-Bothered by Treatment Side Effect"]}, {"conceptId": "C151310", "definition": "National Comprehensive Cancer Network/Functional Assessment of Cancer Therapy-Head & Neck Symptom Index-22 Version 2 - I can swallow naturally and easily.", "preferredTerm": "NCCN-FACT FHNSI-22 Version 2 - Can Swallow Naturally and Easily", "submissionValue": "FAC036-Can Swallow Naturally and Easily", "synonyms": ["FAC036-Can Swallow Naturally and Easily"]}, {"conceptId": "C151325", "definition": "National Comprehensive Cancer Network/Functional Assessment of Cancer Therapy-Head & Neck Symptom Index-22 Version 2 - I am content with the quality of my life right now.", "preferredTerm": "NCCN-FACT FHNSI-22 Version 2 - Content With Quality of My Life", "submissionValue": "FAC036-Content With Quality of My Life", "synonyms": ["FAC036-Content With Quality of My Life"]}, {"conceptId": "C151318", "definition": "National Comprehensive Cancer Network/Functional Assessment of Cancer Therapy-Head & Neck Symptom Index-22 Version 2 - I have had a change in the way food tastes.", "preferredTerm": "NCCN-FACT FHNSI-22 Version 2 - Had Change in the Way Food Tastes", "submissionValue": "FAC036-Had Change in the Way Food Tastes", "synonyms": ["FAC036-Had Change in the Way Food Tastes"]}, {"conceptId": "C151324", "definition": "National Comprehensive Cancer Network/Functional Assessment of Cancer Therapy-Head & Neck Symptom Index-22 Version 2 - I am able to enjoy life.", "preferredTerm": "NCCN-FACT FHNSI-22 Version 2 - I Am Able to Enjoy Life", "submissionValue": "FAC036-I Am Able to Enjoy Life", "synonyms": ["FAC036-I Am Able to Enjoy Life"]}, {"conceptId": "C151323", "definition": "National Comprehensive Cancer Network/Functional Assessment of Cancer Therapy-Head & Neck Symptom Index-22 Version 2 - I am able to work (include work at home).", "preferredTerm": "NCCN-FACT FHNSI-22 Version 2 - I Am Able to Work", "submissionValue": "FAC036-I Am Able to Work", "synonyms": ["FAC036-I Am Able to Work"]}, {"conceptId": "C151320", "definition": "National Comprehensive Cancer Network/Functional Assessment of Cancer Therapy-Head & Neck Symptom Index-22 Version 2 - I am bothered by hair loss.", "preferredTerm": "NCCN-FACT FHNSI-22 Version 2 - I Am Bothered by Hair Loss", "submissionValue": "FAC036-I Am Bothered by Hair Loss", "synonyms": ["FAC036-I Am Bothered by Hair Loss"]}, {"conceptId": "C151305", "definition": "National Comprehensive Cancer Network/Functional Assessment of Cancer Therapy-Head & Neck Symptom Index-22 Version 2 - I am losing weight.", "preferredTerm": "NCCN-FACT FHNSI-22 Version 2 - I Am Losing Weight", "submissionValue": "FAC036-I Am Losing Weight", "synonyms": ["FAC036-I Am Losing Weight"]}, {"conceptId": "C151314", "definition": "National Comprehensive Cancer Network/Functional Assessment of Cancer Therapy-Head & Neck Symptom Index-22 Version 2 - I am sleeping well.", "preferredTerm": "NCCN-FACT FHNSI-22 Version 2 - I Am Sleeping Well", "submissionValue": "FAC036-I Am Sleeping Well", "synonyms": ["FAC036-I Am Sleeping Well"]}, {"conceptId": "C151313", "definition": "National Comprehensive Cancer Network/Functional Assessment of Cancer Therapy-Head & Neck Symptom Index-22 Version 2 - I can eat solid foods.", "preferredTerm": "NCCN-FACT FHNSI-22 Version 2 - I Can Eat Solid Foods", "submissionValue": "FAC036-I Can Eat Solid Foods", "synonyms": ["FAC036-I Can Eat Solid Foods"]}, {"conceptId": "C151307", "definition": "National Comprehensive Cancer Network/Functional Assessment of Cancer Therapy-Head & Neck Symptom Index-22 Version 2 - I feel ill.", "preferredTerm": "NCCN-FACT FHNSI-22 Version 2 - I Feel Ill", "submissionValue": "FAC036-I Feel Ill", "synonyms": ["FAC036-I Feel Ill"]}, {"conceptId": "C151319", "definition": "National Comprehensive Cancer Network/Functional Assessment of Cancer Therapy-Head & Neck Symptom Index-22 Version 2 - I have mouth sores.", "preferredTerm": "NCCN-FACT FHNSI-22 Version 2 - I Have Mouth Sores", "submissionValue": "FAC036-I Have Mouth Sores", "synonyms": ["FAC036-I Have Mouth Sores"]}, {"conceptId": "C151317", "definition": "National Comprehensive Cancer Network/Functional Assessment of Cancer Therapy-Head & Neck Symptom Index-22 Version 2 - I have nausea.", "preferredTerm": "NCCN-FACT FHNSI-22 Version 2 - I Have Nausea", "submissionValue": "FAC036-I Have Nausea", "synonyms": ["FAC036-I Have Nausea"]}, {"conceptId": "C151304", "definition": "National Comprehensive Cancer Network/Functional Assessment of Cancer Therapy-Head & Neck Symptom Index-22 Version 2 - I have pain.", "preferredTerm": "NCCN-FACT FHNSI-22 Version 2 - I Have Pain", "submissionValue": "FAC036-I Have Pain", "synonyms": ["FAC036-I Have Pain"]}, {"conceptId": "C151306", "definition": "National Comprehensive Cancer Network/Functional Assessment of Cancer Therapy-Head & Neck Symptom Index-22 Version 2 - I have trouble breathing.", "preferredTerm": "NCCN-FACT FHNSI-22 Version 2 - I Have Trouble Breathing", "submissionValue": "FAC036-I Have Trouble Breathing", "synonyms": ["FAC036-I Have Trouble Breathing"]}, {"conceptId": "C151322", "definition": "National Comprehensive Cancer Network/Functional Assessment of Cancer Therapy-Head & Neck Symptom Index-22 Version 2 - I have a good appetite.", "preferredTerm": "NCCN-FACT FHNSI-22 Version 2 - I Have a Good Appetite", "submissionValue": "FAC036-I Have a Good Appetite", "synonyms": ["FAC036-I Have a Good Appetite"]}, {"conceptId": "C151316", "definition": "National Comprehensive Cancer Network/Functional Assessment of Cancer Therapy-Head & Neck Symptom Index-22 Version 2 - I have a lack of energy.", "preferredTerm": "NCCN-FACT FHNSI-22 Version 2 - I Have a Lack of Energy", "submissionValue": "FAC036-I Have a Lack of Energy", "synonyms": ["FAC036-I Have a Lack of Energy"]}, {"conceptId": "C151308", "definition": "National Comprehensive Cancer Network/Functional Assessment of Cancer Therapy-Head & Neck Symptom Index-22 Version 2 - I have pain in my mouth, throat or neck.", "preferredTerm": "NCCN-FACT FHNSI-22 Version 2 - Pain in My Mouth, Throat or Neck", "submissionValue": "FAC036-Pain in My Mouth, Throat or Neck", "synonyms": ["FAC036-Pain in My Mouth, Throat or Neck"]}, {"conceptId": "C151309", "definition": "National Comprehensive Cancer Network/Functional Assessment of Cancer Therapy-Head & Neck Symptom Index-22 Version 2 - Because of my physical condition, I have trouble meeting the needs of my family.", "preferredTerm": "NCCN-FACT FHNSI-22 Version 2 - Trouble Meeting Needs of Family", "submissionValue": "FAC036-Trouble Meeting Needs of Family", "synonyms": ["FAC036-Trouble Meeting Needs of Family"]}, {"conceptId": "C151315", "definition": "National Comprehensive Cancer Network/Functional Assessment of Cancer Therapy-Head & Neck Symptom Index-22 Version 2 - I worry that my condition will get worse.", "preferredTerm": "NCCN-FACT FHNSI-22 Version 2 - Worry My Condition Will Get Worse", "submissionValue": "FAC036-Worry My Condition Will Get Worse", "synonyms": ["FAC036-Worry My Condition Will Get Worse"]}]}