{"_links": {"parentPackage": {"href": "/mdr/ct/packages/sdtmct-2020-06-26", "title": "SDTM Controlled Terminology Package 42 Effective 2020-06-26", "type": "Terminology"}, "priorVersion": {"href": "/mdr/ct/packages/sdtmct-2020-03-27/codelists/C154452", "title": "CDISC Questionnaire FACT-BL Version 4 Test Name Terminology", "type": "Code List"}, "rootItem": {"href": "/mdr/root/ct/sdtmct/codelists/C154452", "title": "Version-agnostic anchor resource for codelist C154452", "type": "Root Value Domain"}, "self": {"href": "/mdr/ct/packages/sdtmct-2020-06-26/codelists/C154452", "title": "CDISC Questionnaire FACT-BL Version 4 Test Name Terminology", "type": "Code List"}}, "conceptId": "C154452", "definition": "Functional Assessment of Cancer Therapy-Bladder Version 4 test name.", "extensible": "false", "name": "Functional Assessment of Cancer Therapy-Bladder Version 4 Questionnaire Test Name", "preferredTerm": "CDISC Questionnaire FACT-BL Version 4 Test Name Terminology", "submissionValue": "FAC006TN", "synonyms": ["Functional Assessment of Cancer Therapy-Bladder Version 4 Questionnaire Test Name"], "terms": [{"conceptId": "C155617", "definition": "Functional Assessment of Cancer Therapy-Bladder Version 4 - Additional Concerns: (For men only) I am able to have and maintain an erection.", "preferredTerm": "FACT-BL Version 4 - Able to Have/Maintain Erection", "submissionValue": "FAC006-Able to Have/Maintain Erection", "synonyms": ["FAC006-Able to Have/Maintain Erection"]}, {"conceptId": "C155585", "definition": "Functional Assessment of Cancer Therapy-Bladder Version 4 - Physical Well-Being: I am bothered by side effects of treatment.", "preferredTerm": "FACT-BL Version 4 - Bothered by Treatment Side Effect", "submissionValue": "FAC006-Bothered by Treatment Side Effect", "synonyms": ["FAC006-Bothered by Treatment Side Effect"]}, {"conceptId": "C155620", "definition": "Functional Assessment of Cancer Therapy-Bladder Version 4 - Additional Concerns: Caring for my ostomy appliance is difficult.", "preferredTerm": "FACT-BL Version 4 - Caring for Ostomy Appliance Is Difficult", "submissionValue": "FAC006-Caring for Ostomy Is Difficult", "synonyms": ["FAC006-Caring for Ostomy Is Difficult"]}, {"conceptId": "C155607", "definition": "Functional Assessment of Cancer Therapy-Bladder Version 4 - Functional Well-Being: I am content with the quality of my life right now.", "preferredTerm": "FACT-BL Version 4 - Content With Quality of My Life", "submissionValue": "FAC006-Content With Quality of My Life", "synonyms": ["FAC006-Content With Quality of My Life"]}, {"conceptId": "C155618", "definition": "Functional Assessment of Cancer Therapy-Bladder Version 4 - Additional Concerns: Do you have an ostomy appliance?", "preferredTerm": "FACT-BL Version 4 - Do You Have an Ostomy Appliance", "submissionValue": "FAC006-Do You Have an Ostomy Appliance", "synonyms": ["FAC006-Do You Have an Ostomy Appliance"]}, {"conceptId": "C155619", "definition": "Functional Assessment of Cancer Therapy-Bladder Version 4 - Additional Concerns: I am embarrassed by my ostomy appliance.", "preferredTerm": "FACT-BL Version 4 - Embarrassed by Ostomy Appliance", "submissionValue": "FAC006-Embarrassed by Ostomy Appliance", "synonyms": ["FAC006-Embarrassed by Ostomy Appliance"]}, {"conceptId": "C155606", "definition": "Functional Assessment of Cancer Therapy-Bladder Version 4 - Functional Well-Being: I am enjoying the things I usually do for fun.", "preferredTerm": "FACT-BL Version 4 - Enjoy Things I Usually Do for Fun", "submissionValue": "FAC006-Enjoy Things I Usually Do for Fun", "synonyms": ["FAC006-Enjoy Things I Usually Do for Fun"]}, {"conceptId": "C155589", "definition": "Functional Assessment of Cancer Therapy-Bladder Version 4 - Social/Family Well-Being: I get emotional support from my family.", "preferredTerm": "FACT-BL Version 4 - Get Emotional Support From Family", "submissionValue": "FAC006-Get Emotional Support From Family", "synonyms": ["FAC006-Get Emotional Support From Family"]}, {"conceptId": "C155603", "definition": "Functional Assessment of Cancer Therapy-Bladder Version 4 - Functional Well-Being: I am able to enjoy life.", "preferredTerm": "FACT-BL Version 4 - I Am Able to Enjoy Life", "submissionValue": "FAC006-I Am Able to Enjoy Life", "synonyms": ["FAC006-I Am Able to Enjoy Life"]}, {"conceptId": "C155601", "definition": "Functional Assessment of Cancer Therapy-Bladder Version 4 - Functional Well-Being: I am able to work (include work at home).", "preferredTerm": "FACT-BL Version 4 - I Am Able to Work", "submissionValue": "FAC006-I Am Able to Work", "synonyms": ["FAC006-I Am Able to Work"]}, {"conceptId": "C155587", "definition": "Functional Assessment of Cancer Therapy-Bladder Version 4 - Physical Well-Being: I am forced to spend time in bed.", "preferredTerm": "FACT-BL Version 4 - I Am Forced to Spend Time in Bed", "submissionValue": "FAC006-I Am Forced to Spend Time in Bed", "synonyms": ["FAC006-I Am Forced to Spend Time in Bed"]}, {"conceptId": "C155616", "definition": "Functional Assessment of Cancer Therapy-Bladder Version 4 - Additional Concerns: I am interested in sex.", "preferredTerm": "FACT-BL Version 4 - I Am Interested in Sex", "submissionValue": "FAC006-I Am Interested in Sex", "synonyms": ["FAC006-I Am Interested in Sex"]}, {"conceptId": "C155609", "definition": "Functional Assessment of Cancer Therapy-Bladder Version 4 - Additional Concerns: I am losing weight.", "preferredTerm": "FACT-BL Version 4 - I Am Losing Weight", "submissionValue": "FAC006-I Am Losing Weight", "synonyms": ["FAC006-I Am Losing Weight"]}, {"conceptId": "C155594", "definition": "Functional Assessment of Cancer Therapy-Bladder Version 4 - Social/Family Well-Being: I am satisfied with my sex life.", "preferredTerm": "FACT-BL Version 4 - I Am Satisfied With My Sex Life", "submissionValue": "FAC006-I Am Satisfied With My Sex Life", "synonyms": ["FAC006-I Am Satisfied With My Sex Life"]}, {"conceptId": "C155605", "definition": "Functional Assessment of Cancer Therapy-Bladder Version 4 - Functional Well-Being: I am sleeping well.", "preferredTerm": "FACT-BL Version 4 - I Am Sleeping Well", "submissionValue": "FAC006-I Am Sleeping Well", "synonyms": ["FAC006-I Am Sleeping Well"]}, {"conceptId": "C155588", "definition": "Functional Assessment of Cancer Therapy-Bladder Version 4 - Social/Family Well-Being: I feel close to my friends.", "preferredTerm": "FACT-BL Version 4 - I Feel Close to My Friends", "submissionValue": "FAC006-I Feel Close to My Friends", "synonyms": ["FAC006-I Feel Close to My Friends"]}, {"conceptId": "C155593", "definition": "Functional Assessment of Cancer Therapy-Bladder Version 4 - Social/Family Well-Being: I feel close to my partner (or the person who is my main support).", "preferredTerm": "FACT-BL Version 4 - I Feel Close to My Partner", "submissionValue": "FAC006-I Feel Close to My Partner", "synonyms": ["FAC006-I Feel Close to My Partner"]}, {"conceptId": "C155586", "definition": "Functional Assessment of Cancer Therapy-Bladder Version 4 - Physical Well-Being: I feel ill.", "preferredTerm": "FACT-BL Version 4 - I Feel Ill", "submissionValue": "FAC006-I Feel Ill", "synonyms": ["FAC006-I Feel Ill"]}, {"conceptId": "C155598", "definition": "Functional Assessment of Cancer Therapy-Bladder Version 4 - Emotional Well-Being: I feel nervous.", "preferredTerm": "FACT-BL Version 4 - I Feel Nervous", "submissionValue": "FAC006-I Feel Nervous", "synonyms": ["FAC006-I Feel Nervous"]}, {"conceptId": "C155595", "definition": "Functional Assessment of Cancer Therapy-Bladder Version 4 - Emotional Well-Being: I feel sad.", "preferredTerm": "FACT-BL Version 4 - I Feel Sad", "submissionValue": "FAC006-I Feel Sad", "synonyms": ["FAC006-I Feel Sad"]}, {"conceptId": "C155590", "definition": "Functional Assessment of Cancer Therapy-Bladder Version 4 - Social/Family Well-Being: I get support from my friends.", "preferredTerm": "FACT-BL Version 4 - I Get Support From My Friends", "submissionValue": "FAC006-I Get Support From My Friends", "synonyms": ["FAC006-I Get Support From My Friends"]}, {"conceptId": "C155604", "definition": "Functional Assessment of Cancer Therapy-Bladder Version 4 - Functional Well-Being: I have accepted my illness.", "preferredTerm": "FACT-BL Version 4 - I Have Accepted My Illness", "submissionValue": "FAC006-I Have Accepted My Illness", "synonyms": ["FAC006-I Have Accepted My Illness"]}, {"conceptId": "C155610", "definition": "Functional Assessment of Cancer Therapy-Bladder Version 4 - Additional Concerns: I have control of my bowels.", "preferredTerm": "FACT-BL Version 4 - I Have Control of My Bowels", "submissionValue": "FAC006-I Have Control of My Bowels", "synonyms": ["FAC006-I Have Control of My Bowels"]}, {"conceptId": "C155612", "definition": "Functional Assessment of Cancer Therapy-Bladder Version 4 - Additional Concerns: I have diarrhea (diarrhoea).", "preferredTerm": "FACT-BL Version 4 - I Have Diarrhea", "submissionValue": "FAC006-I Have Diarrhea", "synonyms": ["FAC006-I Have Diarrhea"]}, {"conceptId": "C155582", "definition": "Functional Assessment of Cancer Therapy-Bladder Version 4 - Physical Well-Being: I have nausea.", "preferredTerm": "FACT-BL Version 4 - I Have Nausea", "submissionValue": "FAC006-I Have Nausea", "synonyms": ["FAC006-I Have Nausea"]}, {"conceptId": "C155584", "definition": "Functional Assessment of Cancer Therapy-Bladder Version 4 - Physical Well-Being: I have pain.", "preferredTerm": "FACT-BL Version 4 - I Have Pain", "submissionValue": "FAC006-I Have Pain", "synonyms": ["FAC006-I Have Pain"]}, {"conceptId": "C155613", "definition": "Functional Assessment of Cancer Therapy-Bladder Version 4 - Additional Concerns: I have a good appetite.", "preferredTerm": "FACT-BL Version 4 - I Have a Good Appetite", "submissionValue": "FAC006-I Have a Good Appetite", "synonyms": ["FAC006-I Have a Good Appetite"]}, {"conceptId": "C155581", "definition": "Functional Assessment of Cancer Therapy-Bladder Version 4 - Physical Well-Being: I have a lack of energy.", "preferredTerm": "FACT-BL Version 4 - I Have a Lack of Energy", "submissionValue": "FAC006-I Have a Lack of Energy", "synonyms": ["FAC006-I Have a Lack of Energy"]}, {"conceptId": "C155614", "definition": "Functional Assessment of Cancer Therapy-Bladder Version 4 - Additional Concerns: I like the appearance of my body.", "preferredTerm": "FACT-BL Version 4 - I Like the Appearance of My Body", "submissionValue": "FAC006-I Like the Appearance of My Body", "synonyms": ["FAC006-I Like the Appearance of My Body"]}, {"conceptId": "C155611", "definition": "Functional Assessment of Cancer Therapy-Bladder Version 4 - Additional Concerns: I urinate more frequently than usual.", "preferredTerm": "FACT-BL Version 4 - I Urinate More Frequently", "submissionValue": "FAC006-I Urinate More Frequently", "synonyms": ["FAC006-I Urinate More Frequently"]}, {"conceptId": "C155599", "definition": "Functional Assessment of Cancer Therapy-Bladder Version 4 - Emotional Well-Being: I worry about dying.", "preferredTerm": "FACT-BL Version 4 - I Worry About Dying", "submissionValue": "FAC006-I Worry About Dying", "synonyms": ["FAC006-I Worry About Dying"]}, {"conceptId": "C155615", "definition": "Functional Assessment of Cancer Therapy-Bladder Version 4 - Additional Concerns: It burns when I urinate.", "preferredTerm": "FACT-BL Version 4 - It Burns When I Urinate", "submissionValue": "FAC006-It Burns When I Urinate", "synonyms": ["FAC006-It Burns When I Urinate"]}, {"conceptId": "C155597", "definition": "Functional Assessment of Cancer Therapy-Bladder Version 4 - Emotional Well-Being: I am losing hope in the fight against my illness.", "preferredTerm": "FACT-BL Version 4 - Losing Hope Against Illness", "submissionValue": "FAC006-Losing Hope Against Illness", "synonyms": ["FAC006-Losing Hope Against Illness"]}, {"conceptId": "C155591", "definition": "Functional Assessment of Cancer Therapy-Bladder Version 4 - Social/Family Well-Being: My family has accepted my illness.", "preferredTerm": "FACT-BL Version 4 - My Family Has Accepted My Illness", "submissionValue": "FAC006-My Family Has Accepted My Illness", "synonyms": ["FAC006-My Family Has Accepted My Illness"]}, {"conceptId": "C155602", "definition": "Functional Assessment of Cancer Therapy-Bladder Version 4 - Functional Well-Being: My work (include work at home) is fulfilling.", "preferredTerm": "FACT-BL Version 4 - My Work Is Fulfilling", "submissionValue": "FAC006-My Work Is Fulfilling", "synonyms": ["FAC006-My Work Is Fulfilling"]}, {"conceptId": "C155592", "definition": "Functional Assessment of Cancer Therapy-Bladder Version 4 - Social/Family Well-Being: I am satisfied with family communication about my illness.", "preferredTerm": "FACT-BL Version 4 - Satisfied Communication Illness", "submissionValue": "FAC006-Satisfied Communication Illness", "synonyms": ["FAC006-Satisfied Communication Illness"]}, {"conceptId": "C155596", "definition": "Functional Assessment of Cancer Therapy-Bladder Version 4 - Emotional Well-Being: I am satisfied with how I am coping with my illness.", "preferredTerm": "FACT-BL Version 4 - Satisfied With How I Am Coping", "submissionValue": "FAC006-Satisfied With How I Am Coping", "synonyms": ["FAC006-Satisfied With How I Am Coping"]}, {"conceptId": "C155608", "definition": "Functional Assessment of Cancer Therapy-Bladder Version 4 - Additional Concerns: I have trouble controlling my urine.", "preferredTerm": "FACT-BL Version 4 - Trouble Controlling My Urine", "submissionValue": "FAC006-Trouble Controlling My Urine", "synonyms": ["FAC006-Trouble Controlling My Urine"]}, {"conceptId": "C155583", "definition": "Functional Assessment of Cancer Therapy-Bladder Version 4 - Physical Well-Being: Because of my physical condition, I have trouble meeting the needs of my family.", "preferredTerm": "FACT-BL Version 4 - Trouble Meeting Needs of Family", "submissionValue": "FAC006-Trouble Meeting Needs of Family", "synonyms": ["FAC006-Trouble Meeting Needs of Family"]}, {"conceptId": "C155600", "definition": "Functional Assessment of Cancer Therapy-Bladder Version 4 - Emotional Well-Being: I worry that my condition will get worse.", "preferredTerm": "FACT-BL Version 4 - Worry My Condition Will Get Worse", "submissionValue": "FAC006-Worry My Condition Will Get Worse", "synonyms": ["FAC006-Worry My Condition Will Get Worse"]}]}