{"_links": {"parentPackage": {"href": "/mdr/ct/packages/sdtmct-2020-06-26", "title": "SDTM Controlled Terminology Package 42 Effective 2020-06-26", "type": "Terminology"}, "rootItem": {"href": "/mdr/root/ct/sdtmct/codelists/C171354", "title": "Version-agnostic anchor resource for codelist C171354", "type": "Root Value Domain"}, "self": {"href": "/mdr/ct/packages/sdtmct-2020-06-26/codelists/C171354", "title": "CDISC Clinical Classification NEWS2 Test Name Terminology", "type": "Code List"}}, "conceptId": "C171354", "definition": "National Early Warning Score 2 test name.", "extensible": "false", "name": "National Early Warning Score 2 Clinical Classification Test Name", "preferredTerm": "CDISC Clinical Classification NEWS2 Test Name Terminology", "submissionValue": "NEWS1TN", "synonyms": ["National Early Warning Score 2 Clinical Classification Test Name"], "terms": [{"conceptId": "C171361", "definition": "National Early Warning Score 2 - Air or oxygen?", "preferredTerm": "NEWS2 - Air or Oxygen", "submissionValue": "NEWS1-Air or Oxygen", "synonyms": ["NEWS1-Air or Oxygen"]}, {"conceptId": "C171362", "definition": "National Early Warning Score 2 - Air or oxygen: Device.", "preferredTerm": "NEWS2 - Air or Oxygen: Device", "submissionValue": "NEWS1-Air or Oxygen: Device", "synonyms": ["NEWS1-Air or Oxygen: Device"]}, {"conceptId": "C171365", "definition": "National Early Warning Score 2 - Consciousness.", "preferredTerm": "NEWS2 - Consciousness", "submissionValue": "NEWS1-Consciousness", "synonyms": ["NEWS1-Consciousness"]}, {"conceptId": "C171369", "definition": "National Early Warning Score 2 - Escalation of care.", "preferredTerm": "NEWS2 - Escalation of Care", "submissionValue": "NEWS1-Escalation of Care", "synonyms": ["NEWS1-Escalation of Care"]}, {"conceptId": "C171368", "definition": "National Early Warning Score 2 - Monitoring frequency.", "preferredTerm": "NEWS2 - Monitoring Frequency", "submissionValue": "NEWS1-Monitoring Frequency", "synonyms": ["NEWS1-Monitoring Frequency"]}, {"conceptId": "C171367", "definition": "National Early Warning Score 2 - NEWS total.", "preferredTerm": "NEWS2 - NEWS Total", "submissionValue": "NEWS1-NEWS Total", "synonyms": ["NEWS1-NEWS Total"]}, {"conceptId": "C171359", "definition": "National Early Warning Score 2 - SpO2 Scale 1 oxygen saturation.", "preferredTerm": "NEWS2 - Oxygen Saturation SpO2 Scale 1", "submissionValue": "NEWS1-Oxygen Saturation SpO2 Scale 1", "synonyms": ["NEWS1-Oxygen Saturation SpO2 Scale 1"]}, {"conceptId": "C171360", "definition": "National Early Warning Score 2 - SpO2 Scale 2 oxygen saturation.", "preferredTerm": "NEWS2 - Oxygen Saturation SpO2 Scale 2", "submissionValue": "NEWS1-Oxygen Saturation SpO2 Scale 2", "synonyms": ["NEWS1-Oxygen Saturation SpO2 Scale 2"]}, {"conceptId": "C171364", "definition": "National Early Warning Score 2 - Pulse.", "preferredTerm": "NEWS2 - Pulse", "submissionValue": "NEWS1-Pulse", "synonyms": ["NEWS1-Pulse"]}, {"conceptId": "C171358", "definition": "National Early Warning Score 2 - Respirations.", "preferredTerm": "NEWS2 - Respirations", "submissionValue": "NEWS1-Respirations", "synonyms": ["NEWS1-Respirations"]}, {"conceptId": "C171363", "definition": "National Early Warning Score 2 - Blood pressure. Score uses systolic BP only.", "preferredTerm": "NEWS2 - Systolic Blood Pressure", "submissionValue": "NEWS1-Systolic Blood Pressure", "synonyms": ["NEWS1-Systolic Blood Pressure"]}, {"conceptId": "C171366", "definition": "National Early Warning Score 2 - Temperature.", "preferredTerm": "NEWS2 - Temperature", "submissionValue": "NEWS1-Temperature", "synonyms": ["NEWS1-Temperature"]}]}