{"_links": {"parentPackage": {"href": "/mdr/ct/packages/sdtmct-2020-06-26", "title": "SDTM Controlled Terminology Package 42 Effective 2020-06-26", "type": "Terminology"}, "rootItem": {"href": "/mdr/root/ct/sdtmct/codelists/C172400", "title": "Version-agnostic anchor resource for codelist C172400", "type": "Root Value Domain"}, "self": {"href": "/mdr/ct/packages/sdtmct-2020-06-26/codelists/C172400", "title": "CDISC Questionnaire EORTC QLQ-LC13 Test Code Terminology", "type": "Code List"}}, "conceptId": "C172400", "definition": "European Organisation for the Research and Treatment of Cancer Quality of Life Questionnaire - Lung Cancer Module test code.", "extensible": "false", "name": "European Organisation for the Research and Treatment of Cancer Quality of Life Questionnaire - Lung Cancer Module Questionnaire Test Code", "preferredTerm": "CDISC Questionnaire EORTC QLQ-LC13 Test Code Terminology", "submissionValue": "EOR18TC", "synonyms": ["European Organisation for the Research and Treatment of Cancer Quality of Life Questionnaire - Lung Cancer Module Questionnaire Test Code"], "terms": [{"conceptId": "C172403", "definition": "European Organisation for the Research and Treatment of Cancer Quality of Life Questionnaire - Lung Cancer Module - How much did you cough?", "preferredTerm": "EORTC QLQ-LC13 - How Much Did You Cough", "submissionValue": "EOR1831", "synonyms": ["EOR18-How Much Did You Cough"]}, {"conceptId": "C172404", "definition": "European Organisation for the Research and Treatment of Cancer Quality of Life Questionnaire - Lung Cancer Module - Did you cough up blood?", "preferredTerm": "EORTC QLQ-LC13 - Did You Cough Up Blood", "submissionValue": "EOR1832", "synonyms": ["EOR18-Did You Cough Up Blood"]}, {"conceptId": "C172405", "definition": "European Organisation for the Research and Treatment of Cancer Quality of Life Questionnaire - Lung Cancer Module - Were you short of breath when you rested?", "preferredTerm": "EORTC QLQ-LC13 - Short of Breath When Rested", "submissionValue": "EOR1833", "synonyms": ["EOR18-Short of Breath When Rested"]}, {"conceptId": "C172406", "definition": "European Organisation for the Research and Treatment of Cancer Quality of Life Questionnaire - Lung Cancer Module - Were you short of breath when you walked?", "preferredTerm": "EORTC QLQ-LC13 - Short of Breath When Walked", "submissionValue": "EOR1834", "synonyms": ["EOR18-Short of Breath When Walked"]}, {"conceptId": "C172407", "definition": "European Organisation for the Research and Treatment of Cancer Quality of Life Questionnaire - Lung Cancer Module - Were you short of breath when you climbed stairs?", "preferredTerm": "EORTC QLQ-LC13 - Short of Breath Climbed Stairs", "submissionValue": "EOR1835", "synonyms": ["EOR18-Short of Breath Climbed Stairs"]}, {"conceptId": "C172408", "definition": "European Organisation for the Research and Treatment of Cancer Quality of Life Questionnaire - Lung Cancer Module - Have you had a sore mouth or tongue?", "preferredTerm": "EORTC QLQ-LC13 - Had a Sore Mouth or Tongue", "submissionValue": "EOR1836", "synonyms": ["EOR18-Had a Sore Mouth or Tongue"]}, {"conceptId": "C172409", "definition": "European Organisation for the Research and Treatment of Cancer Quality of Life Questionnaire - Lung Cancer Module - Have you had trouble swallowing?", "preferredTerm": "EORTC QLQ-LC13 - Have You Had Trouble Swallowing", "submissionValue": "EOR1837", "synonyms": ["EOR18-Have You Had Trouble Swallowing"]}, {"conceptId": "C172410", "definition": "European Organisation for the Research and Treatment of Cancer Quality of Life Questionnaire - Lung Cancer Module - Have you had tingling hands or feet?", "preferredTerm": "EORTC QLQ-LC13 - Had Tingling Hands or Feet", "submissionValue": "EOR1838", "synonyms": ["EOR18-Had Tingling Hands or Feet"]}, {"conceptId": "C172411", "definition": "European Organisation for the Research and Treatment of Cancer Quality of Life Questionnaire - Lung Cancer Module - Have you had hair loss?", "preferredTerm": "EORTC QLQ-LC13 - Have You Had Hair Loss", "submissionValue": "EOR1839", "synonyms": ["EOR18-Have You Had Hair Loss"]}, {"conceptId": "C172412", "definition": "European Organisation for the Research and Treatment of Cancer Quality of Life Questionnaire - Lung Cancer Module - Have you had pain in your chest?", "preferredTerm": "EORTC QLQ-LC13 - Have You Had Pain in Your Chest", "submissionValue": "EOR1840", "synonyms": ["EOR18-Have You Had Pain in Your Chest"]}, {"conceptId": "C172413", "definition": "European Organisation for the Research and Treatment of Cancer Quality of Life Questionnaire - Lung Cancer Module - Have you had pain in your arm or shoulder?", "preferredTerm": "EORTC QLQ-LC13 - Had Pain in Your Arm or Shoulder", "submissionValue": "EOR1841", "synonyms": ["EOR18-Had Pain in Your Arm or Shoulder"]}, {"conceptId": "C172414", "definition": "European Organisation for the Research and Treatment of Cancer Quality of Life Questionnaire - Lung Cancer Module - Have you had pain in other parts of your body?", "preferredTerm": "EORTC QLQ-LC13 - Had Pain in Other Parts of Body", "submissionValue": "EOR1842", "synonyms": ["EOR18-Had Pain in Other Parts of Body"]}, {"conceptId": "C172415", "definition": "European Organisation for the Research and Treatment of Cancer Quality of Life Questionnaire - Lung Cancer Module - If yes, where.", "preferredTerm": "EORTC QLQ-LC13 - If Yes, Where", "submissionValue": "EOR1842A", "synonyms": ["EOR18-If Yes, Where"]}, {"conceptId": "C172416", "definition": "European Organisation for the Research and Treatment of Cancer Quality of Life Questionnaire - Lung Cancer Module - Did you take any medicine for pain?", "preferredTerm": "EORTC QLQ-LC13 - Did You Take Any Medicine for Pain", "submissionValue": "EOR1843", "synonyms": ["EOR18-Did You Take Any Medicine for Pain"]}, {"conceptId": "C172417", "definition": "European Organisation for the Research and Treatment of Cancer Quality of Life Questionnaire - Lung Cancer Module - If yes, how much did it help?", "preferredTerm": "EORTC QLQ-LC13 - If Yes, How Much Did It Help", "submissionValue": "EOR1843A", "synonyms": ["EOR18-If Yes, How Much Did It Help"]}]}