{"_links": {"parentPackage": {"href": "/mdr/ct/packages/sdtmct-2020-06-26", "title": "SDTM Controlled Terminology Package 42 Effective 2020-06-26", "type": "Terminology"}, "priorVersion": {"href": "/mdr/ct/packages/sdtmct-2020-03-27/codelists/C66742", "title": "CDISC SDTM Yes No Unknown or Not Applicable Response Terminology", "type": "Code List"}, "rootItem": {"href": "/mdr/root/ct/sdtmct/codelists/C66742", "title": "Version-agnostic anchor resource for codelist C66742", "type": "Root Value Domain"}, "self": {"href": "/mdr/ct/packages/sdtmct-2020-06-26/codelists/C66742", "title": "CDISC SDTM Yes No Unknown or Not Applicable Response Terminology", "type": "Code List"}}, "conceptId": "C66742", "definition": "A term that is used to indicate a question with permissible values of yes/no/unknown/not applicable.", "extensible": "false", "name": "No Yes Response", "preferredTerm": "CDISC SDTM Yes No Unknown or Not Applicable Response Terminology", "submissionValue": "NY", "synonyms": ["No Yes Response"], "terms": [{"conceptId": "C49487", "definition": "The non-affirmative response to a question. (NCI)", "preferredTerm": "No", "submissionValue": "N", "synonyms": ["No"]}, {"conceptId": "C48660", "definition": "Determination of a value is not relevant in the current context. (NCI)", "preferredTerm": "Not Applicable", "submissionValue": "NA", "synonyms": ["NA", "Not Applicable"]}, {"conceptId": "C17998", "definition": "Not known, not observed, not recorded, or refused. (NCI)", "preferredTerm": "Unknown", "submissionValue": "U", "synonyms": ["U", "UNK", "Unknown"]}, {"conceptId": "C49488", "definition": "The affirmative response to a question. (NCI)", "preferredTerm": "Yes", "submissionValue": "Y", "synonyms": ["Yes"]}]}