{"_links": {"parentPackage": {"href": "/mdr/ct/packages/sdtmct-2020-06-26", "title": "SDTM Controlled Terminology Package 42 Effective 2020-06-26", "type": "Terminology"}, "priorVersion": {"href": "/mdr/ct/packages/sdtmct-2020-03-27/codelists/C66735", "title": "CDISC SDTM Trial Blinding Schema Terminology", "type": "Code List"}, "rootItem": {"href": "/mdr/root/ct/sdtmct/codelists/C66735", "title": "Version-agnostic anchor resource for codelist C66735", "type": "Root Value Domain"}, "self": {"href": "/mdr/ct/packages/sdtmct-2020-06-26/codelists/C66735", "title": "CDISC SDTM Trial Blinding Schema Terminology", "type": "Code List"}}, "conceptId": "C66735", "definition": "A terminology codelist relevant to the type of blinding for the trial.", "extensible": "true", "name": "Trial Blinding Schema Response", "preferredTerm": "CDISC SDTM Trial Blinding Schema Terminology", "submissionValue": "TBLIND", "synonyms": ["Trial Blinding Schema Response"], "terms": [{"conceptId": "C15228", "definition": "A study in which neither the subject nor the investigator nor the research team interacting with the subject or data during the trial knows what treatment a subject is receiving. (CDISC glossary)", "preferredTerm": "Double Blind Study", "submissionValue": "DOUBLE BLIND"}, {"conceptId": "C49659", "definition": "A trial in which subjects and investigators know which product each subject is receiving; opposite of a blinded or double-blind study. (CDISC glossary)", "preferredTerm": "Open Label Study", "submissionValue": "OPEN LABEL"}, {"conceptId": "C156592", "definition": "A study in which the therapeutic treatment is open label but the dosing information of the investigational medicinal product (IMP) is double-blinded.", "preferredTerm": "Open Label for Treatment And Double Blind to Dose", "submissionValue": "OPEN LABEL TO TREATMENT AND DOUBLE BLIND TO IMP DOSE"}, {"conceptId": "C28233", "definition": "A study in which one party, either the investigator or the subject, does not know which medication or placebo is administered to the subject; also called singlemasked study. (CDISC glossary)", "preferredTerm": "Single Blind Study", "submissionValue": "SINGLE BLIND"}]}