{
  "_links": {
    "priorVersion": {
      "href": "",
      "title": "",
      "type": "Terminology"
    },
    "self": {
      "href": "",
      "title": "",
      "type": "Terminology"
    }
  },
  "codelists": [
    {
      "conceptId": "D000001",
      "definition": "",
      "extensible": true,
      "name": "Extra test codes",
      "preferredTerm": "Extra test codes",
      "submissionValue": "TEST CODES",
      "synonyms": [],
      "terms": [
        {
          "conceptId": "D100000",
          "definition": "",
          "name": "Age",
          "preferredTerm": "Age",
          "submissionValue": "AGE",
          "synonyms": []
        },
        {
          "conceptId": "D100001",
          "definition": "",
          "name": "Race",
          "preferredTerm": "Race",
          "submissionValue": "RACE",
          "synonyms": []
        },
        {
          "conceptId": "D100002",
          "definition": "",
          "name": "Sex",
          "preferredTerm": "Sex",
          "submissionValue": "SEX",
          "synonyms": []
        },
        {
          "conceptId": "D100003",
          "definition": "",
          "name": "Ethnicity",
          "preferredTerm": "Ethnicity",
          "submissionValue": "ETHNIC",
          "synonyms": []
        },
        {
          "conceptId": "D100004",
          "definition": "",
          "name": "Adverse Event",
          "preferredTerm": "Adverse Event",
          "submissionValue": "ADVERSE EVENT",
          "synonyms": []
        },
        {
          "conceptId": "D100005",
          "definition": "",
          "name": "Drug Exposure",
          "preferredTerm": "Drug Exposure",
          "submissionValue": "DRUG EXPOSURE",
          "synonyms": []
        },
        {
          "conceptId": "D100006",
          "definition": "",
          "name": "Date of Birth",
          "preferredTerm": "Date of Birth",
          "submissionValue": "DATE OF BIRTH",
          "synonyms": []
        },
        {
          "conceptId": "D100007",
          "definition": "",
          "name": "Inclusion Criteria",
          "preferredTerm": "Inclusion Criteria",
          "submissionValue": "INCLCRIT",
          "synonyms": []
        },
        {
          "conceptId": "D100008",
          "definition": "",
          "name": "Exclusion Criteria",
          "preferredTerm": "Exclusion Criteria",
          "submissionValue": "EXCLCRIT",
          "synonyms": []
        },
        {
          "conceptId": "D100009",
          "definition": "",
          "name": "Enrollment Date",
          "preferredTerm": "Enrollment Date",
          "submissionValue": "ENROLLMENT",
          "synonyms": []
        },
        {
          "conceptId": "D100010",
          "definition": "",
          "name": "Medical History",
          "preferredTerm": "Medical History",
          "submissionValue": "MEDHIST",
          "synonyms": []
        }
      ]
    }
  ]
}