{"_links": {"parentPackage": {"href": "/mdr/ct/packages/sendct-2022-09-30", "title": "SEND Controlled Terminology Package 51 Effective 2022-09-30", "type": "Terminology"}, "priorVersion": {"href": "/mdr/ct/packages/sendct-2022-06-24/codelists/C160928", "title": "CDISC SEND Rad/Nuc Targeted Injury Model Response Terminology", "type": "Code List"}, "rootItem": {"href": "/mdr/root/ct/sendct/codelists/C160928", "title": "Version-agnostic anchor resource for codelist C160928", "type": "Root Value Domain"}, "self": {"href": "/mdr/ct/packages/sendct-2022-09-30/codelists/C160928", "title": "CDISC SEND Rad/Nuc Targeted Injury Model Response Terminology", "type": "Code List"}}, "conceptId": "C160928", "definition": "Terminology related to the type of radiation injury that is being induced in the animal.", "extensible": "true", "name": "Rad/Nuc Targeted Injury Model Response", "preferredTerm": "CDISC SEND Rad/Nuc Targeted Injury Model Response Terminology", "submissionValue": "RNTIMRS", "synonyms": ["Rad/Nuc Targeted Injury Model Response"], "terms": [{"conceptId": "C161517", "definition": "Cardiovascular injury resulting from radiation exposure.", "preferredTerm": "Cardiovascular Radiation Injury", "submissionValue": "CARDIOVASCULAR RADIATION INJURY"}, {"conceptId": "C161518", "definition": "Central nervous system injury resulting from radiation exposure.", "preferredTerm": "Central Nervous System Radiation Injury", "submissionValue": "CENTRAL NERVOUS SYSTEM RADIATION INJURY"}, {"conceptId": "C161515", "definition": "Skin injury resulting from radiation exposure.", "preferredTerm": "Cutaneous Radiation Injury", "submissionValue": "CUTANEOUS RADIATION INJURY"}, {"conceptId": "C161513", "definition": "Gastrointestinal injury resulting from radiation exposure.", "preferredTerm": "Gastrointestinal Radiation Injury", "submissionValue": "GASTROINTESTINAL RADIATION INJURY"}, {"conceptId": "C161512", "definition": "Hematopoietic injury resulting from radiation exposure.", "preferredTerm": "Hematopoietic Radiation Injury", "submissionValue": "HEMATOPOIETIC RADIATION INJURY", "synonyms": ["Bone Marrow Radiation Injury"]}, {"conceptId": "C161519", "definition": "Liver injury resulting from radiation exposure.", "preferredTerm": "Liver Radiation Injury", "submissionValue": "LIVER RADIATION INJURY", "synonyms": ["Hepatic Radiation Injury"]}, {"conceptId": "C161514", "definition": "Lung injury resulting from radiation exposure.", "preferredTerm": "Lung Radiation Injury", "submissionValue": "LUNG RADIATION INJURY", "synonyms": ["Pulmonary Radiation Syndrome"]}, {"conceptId": "C161516", "definition": "Kidney injury resulting from radiation exposure.", "preferredTerm": "Renal Radiation Injury", "submissionValue": "RENAL RADIATION INJURY"}]}