{"_links": {"parentPackage": {"href": "/mdr/ct/packages/sendct-2022-09-30", "title": "SEND Controlled Terminology Package 51 Effective 2022-09-30", "type": "Terminology"}, "priorVersion": {"href": "/mdr/ct/packages/sendct-2022-06-24/codelists/C181166", "title": "CDISC SEND Test Site Activity Response Terminology", "type": "Code List"}, "rootItem": {"href": "/mdr/root/ct/sendct/codelists/C181166", "title": "Version-agnostic anchor resource for codelist C181166", "type": "Root Value Domain"}, "self": {"href": "/mdr/ct/packages/sendct-2022-09-30/codelists/C181166", "title": "CDISC SEND Test Site Activity Response Terminology", "type": "Code List"}}, "conceptId": "C181166", "definition": "Terminology relevant to the general type of study activity performed at a test site.", "extensible": "true", "name": "Test Site Activity Response", "preferredTerm": "CDISC SEND Test Site Activity Response Terminology", "submissionValue": "TSACTVYR", "synonyms": ["Test Site Activity Response"], "terms": [{"conceptId": "C181560", "definition": "Testing activities to measure the amount of biotics and/or xenobiotics for the purpose of characterizing absorption, distribution, metabolism, and excretion (ADME) properties.", "preferredTerm": "Bioanalytical Measurement", "submissionValue": "BIOANALYSIS", "synonyms": ["BA"]}, {"conceptId": "C181558", "definition": "All testing activities involving clinical pathology within the study.", "preferredTerm": "Clinical Pathology For All Endpoints", "submissionValue": "CLINICAL PATHOLOGY FOR ALL ENDPOINTS"}, {"conceptId": "C181559", "definition": "Testing activities involving clinical pathology for certain endpoints within the study.", "preferredTerm": "Clinical Pathology For Selected Endpoints", "submissionValue": "CLINICAL PATHOLOGY FOR SELECTED ENDPOINTS"}, {"conceptId": "C181655", "definition": "Data analysis activities to interpret electrocardiograms.", "preferredTerm": "Electrocardiogram Analysis", "submissionValue": "ECG ANALYSIS", "synonyms": ["Electrocardiogram Analysis"]}, {"conceptId": "C90390", "definition": "An assessment of macroscopic pathological findings.", "preferredTerm": "Gross Pathologic Examination", "submissionValue": "GROSS PATHOLOGY", "synonyms": ["Gross Pathological Examination"]}, {"conceptId": "C18190", "definition": "Microscopic evaluation of tissues for detection of abnormalities.", "preferredTerm": "Histopathologic Examination", "submissionValue": "HISTOPATHOLOGY"}, {"conceptId": "C181561", "definition": "Data analysis that results in the characterization of the in vivo exposure to a substance/analyte, which may be used to characterize one or more ADME (absorption, distribution, metabolism, and excretion) properties.", "preferredTerm": "Toxicokinetic Analysis", "submissionValue": "TOXICOKINETIC ANALYSIS", "synonyms": ["TK"]}]}