{"_links": {"parentPackage": {"href": "/mdr/ct/packages/cdashct-2022-12-16", "title": "CDASH Controlled Terminology Package 52 Effective 2022-12-16", "type": "Terminology"}, "priorVersion": {"href": "/mdr/ct/packages/cdashct-2022-09-30/codelists/C181163", "title": "CDISC CDASH Study Agent Rechallenge Reaction Response Terminology", "type": "Code List"}, "rootItem": {"href": "/mdr/root/ct/cdashct/codelists/C181163", "title": "Version-agnostic anchor resource for codelist C181163", "type": "Root Value Domain"}, "self": {"href": "/mdr/ct/packages/cdashct-2022-12-16/codelists/C181163", "title": "CDISC CDASH Study Agent Rechallenge Reaction Response Terminology", "type": "Code List"}}, "conceptId": "C181163", "definition": "A terminology codelist relevant to the resultant reaction due to restarting or otherwise returning administration of study treatment to previous level, after a dechallenge event.", "extensible": "true", "name": "Study Agent Rechallenge Reaction Response", "preferredTerm": "CDISC CDASH Study Agent Rechallenge Reaction Response Terminology", "submissionValue": "SARCRR", "synonyms": ["Study Agent Rechallenge Reaction Response"], "terms": [{"conceptId": "C181226", "definition": "Failure of the product/drug, when reintroduced, to produce signs or symptoms similar to those observed when the product/drug was previously used.", "preferredTerm": "Negative Rechallenge Response", "submissionValue": "NEGATIVE RECHALLENGE"}, {"conceptId": "C181228", "definition": "The outcome of reintroduction of product/drug is not relevant in the current context.", "preferredTerm": "Not Applicable Rechallenge Response", "submissionValue": "NOT APPLICABLE RECHALLENGE"}, {"conceptId": "C181227", "definition": "Recurrence of similar or new signs and symptoms upon reintroduction of the product/drug.", "preferredTerm": "Positive Rechallenge Response", "submissionValue": "POSITIVE RECHALLENGE"}, {"conceptId": "C181229", "definition": "No information regarding the outcome of reintroduction of product/drug.", "preferredTerm": "Unknown Rechallenge Response", "submissionValue": "UKNOWN RECHALLENGE"}]}