{"_links": {"parentPackage": {"href": "/mdr/ct/packages/cdashct-2022-12-16", "title": "CDASH Controlled Terminology Package 52 Effective 2022-12-16", "type": "Terminology"}, "priorVersion": {"href": "/mdr/ct/packages/cdashct-2022-09-30/codelists/C78427", "title": "CDISC CDASH Unit for Duration of Treatment Interruption Terminology", "type": "Code List"}, "rootItem": {"href": "/mdr/root/ct/cdashct/codelists/C78427", "title": "Version-agnostic anchor resource for codelist C78427", "type": "Root Value Domain"}, "self": {"href": "/mdr/ct/packages/cdashct-2022-12-16/codelists/C78427", "title": "CDISC CDASH Unit for Duration of Treatment Interruption Terminology", "type": "Code List"}}, "conceptId": "C78427", "definition": "A terminology subset of the CDISC SDTM Unit codelist created for CDASH Unit for Duration of Treatment Interruption codelist. (NCI)", "extensible": "true", "name": "Unit for the Duration of Treatment Interruption", "preferredTerm": "CDISC CDASH Unit for Duration of Treatment Interruption Terminology", "submissionValue": "EXINTPU", "synonyms": ["Unit for the Duration of Treatment Interruption"], "terms": [{"conceptId": "C25529", "definition": "A unit of measurement of time equal to 60 minutes.", "preferredTerm": "Hour", "submissionValue": "HOURS", "synonyms": ["h", "Hours", "hr"]}, {"conceptId": "C48154", "definition": "A unit of measurement of time equal to 60 seconds.", "preferredTerm": "Minute", "submissionValue": "min", "synonyms": ["Minute"]}, {"conceptId": "C42535", "definition": "The base unit of time in the International System of Units (SI) equal to the duration of 9,192,631,770 periods of the specified light radiation corresponding to the transition between the two hyperfine levels of the cesium 133 atom in its ground state at 0 K.", "preferredTerm": "Second", "submissionValue": "s", "synonyms": ["sec", "Second"]}]}