{"_links": {"parentPackage": {"href": "/mdr/ct/packages/cdashct-2022-12-16", "title": "CDASH Controlled Terminology Package 52 Effective 2022-12-16", "type": "Terminology"}, "priorVersion": {"href": "/mdr/ct/packages/cdashct-2022-09-30/codelists/C78422", "title": "CDISC CDASH ECG Original Units Terminology", "type": "Code List"}, "rootItem": {"href": "/mdr/root/ct/cdashct/codelists/C78422", "title": "Version-agnostic anchor resource for codelist C78422", "type": "Root Value Domain"}, "self": {"href": "/mdr/ct/packages/cdashct-2022-12-16/codelists/C78422", "title": "CDISC CDASH ECG Original Units Terminology", "type": "Code List"}}, "conceptId": "C78422", "definition": "A terminology subset of the CDISC SDTM Unit codelist created for CDASH ECG Original Units codelist. (NCI)", "extensible": "true", "name": "ECG Original Units", "preferredTerm": "CDISC CDASH ECG Original Units Terminology", "submissionValue": "EGORRESU", "synonyms": ["ECG Original Units"], "terms": [{"conceptId": "C49673", "definition": "The number of heartbeats measured per minute time. (NCI)", "preferredTerm": "Beats per Minute", "submissionValue": "beats/min", "synonyms": ["Beats per Minute", "BPM", "bpm"]}, {"conceptId": "C41140", "definition": "A unit of time, which is equal to one thousandth of a second.(NCI)", "preferredTerm": "Millisecond", "submissionValue": "ms", "synonyms": ["Millisecond", "ms", "msec"]}, {"conceptId": "C42535", "definition": "The base unit of time in the International System of Units (SI) equal to the duration of 9,192,631,770 periods of the specified light radiation corresponding to the transition between the two hyperfine levels of the cesium 133 atom in its ground state at 0 K.", "preferredTerm": "Second", "submissionValue": "s", "synonyms": ["sec", "Second"]}]}