{"_links": {"parentPackage": {"href": "/mdr/ct/packages/qrsct-2015-09-25", "title": "QRS Controlled Terminology Package 23 Effective 2015-09-25", "type": "Terminology"}, "priorVersion": {"href": "/mdr/ct/packages/qrsct-2015-06-26/codelists/C100154", "title": "CDISC Questionnaire FPSR Test Code Terminology", "type": "Code List"}, "rootItem": {"href": "/mdr/root/ct/qrsct/codelists/C100154", "title": "Version-agnostic anchor resource for codelist C100154", "type": "Root Value Domain"}, "self": {"href": "/mdr/ct/packages/qrsct-2015-09-25/codelists/C100154", "title": "CDISC Questionnaire FPSR Test Code Terminology", "type": "Code List"}}, "conceptId": "C100154", "definition": "Faces Pain Scale - Revised test code.", "extensible": "false", "name": "QS-Faces Pain Scale - Revised Test Code", "preferredTerm": "CDISC Questionnaire FPSR Test Code Terminology", "submissionValue": "FPSR TESTCD", "synonyms": ["QS-Faces Pain Scale - Revised Test Code"], "terms": [{"conceptId": "C101013", "definition": "Faces Pain Scale - Revised - Point to the face that shows how much you hurt [right now].", "preferredTerm": "FPSR - How Much do You Hurt", "submissionValue": "FPSR101", "synonyms": ["FPSR1-How Much do you Hurt"]}]}