{"_links": {"parentPackage": {"href": "/mdr/ct/packages/qrsct-2015-09-25", "title": "QRS Controlled Terminology Package 23 Effective 2015-09-25", "type": "Terminology"}, "priorVersion": {"href": "/mdr/ct/packages/qrsct-2015-06-26/codelists/C100170", "title": "CDISC Questionnaire KPS Scale Test Code Terminology", "type": "Code List"}, "rootItem": {"href": "/mdr/root/ct/qrsct/codelists/C100170", "title": "Version-agnostic anchor resource for codelist C100170", "type": "Root Value Domain"}, "self": {"href": "/mdr/ct/packages/qrsct-2015-09-25/codelists/C100170", "title": "CDISC Questionnaire KPS Scale Test Code Terminology", "type": "Code List"}}, "conceptId": "C100170", "definition": "Karnofsky Performance Status Scale test code.", "extensible": "false", "name": "QS-Karnofsky Performance Status Scale Test Code", "preferredTerm": "CDISC Questionnaire KPS Scale Test Code Terminology", "submissionValue": "KPS Scale TESTCD", "synonyms": ["QS-Karnofsky Performance Status Scale Test Code"], "terms": [{"conceptId": "C100417", "definition": "Karnofsky Performance Status Scale - Karnofsky Performance Status.", "preferredTerm": "KPS Scale - Karnofsky Performance Status", "submissionValue": "KPSS01", "synonyms": ["KPSS-Karnofsky Performance Status"]}]}