{"_links": {"parentPackage": {"href": "/mdr/ct/packages/qrsct-2015-09-25", "title": "QRS Controlled Terminology Package 23 Effective 2015-09-25", "type": "Terminology"}, "priorVersion": {"href": "/mdr/ct/packages/qrsct-2015-06-26/codelists/C101815", "title": "CDISC Questionnaire ECOG Test Code Terminology", "type": "Code List"}, "rootItem": {"href": "/mdr/root/ct/qrsct/codelists/C101815", "title": "Version-agnostic anchor resource for codelist C101815", "type": "Root Value Domain"}, "self": {"href": "/mdr/ct/packages/qrsct-2015-09-25/codelists/C101815", "title": "CDISC Questionnaire ECOG Test Code Terminology", "type": "Code List"}}, "conceptId": "C101815", "definition": "Eastern Cooperative Oncology Group Performance Status test code.", "extensible": "false", "name": "QS-Eastern Cooperative Oncology Group Performance Status Test Code", "preferredTerm": "CDISC Questionnaire ECOG Test Code Terminology", "submissionValue": "ECOG TESTCD", "synonyms": ["QS-Eastern Cooperative Oncology Group Performance Status Test Code"], "terms": [{"conceptId": "C102408", "definition": "ECOG Performance Status - Performance Status.", "preferredTerm": "ECOG - Performance Status", "submissionValue": "ECOG101", "synonyms": ["ECOG1-Performance Status"]}]}