{"_links": {"parentPackage": {"href": "/mdr/ct/packages/qrsct-2015-09-25", "title": "QRS Controlled Terminology Package 23 Effective 2015-09-25", "type": "Terminology"}, "priorVersion": {"href": "/mdr/ct/packages/qrsct-2015-06-26/codelists/C101816", "title": "CDISC Questionnaire ECOG Test Name Terminology", "type": "Code List"}, "rootItem": {"href": "/mdr/root/ct/qrsct/codelists/C101816", "title": "Version-agnostic anchor resource for codelist C101816", "type": "Root Value Domain"}, "self": {"href": "/mdr/ct/packages/qrsct-2015-09-25/codelists/C101816", "title": "CDISC Questionnaire ECOG Test Name Terminology", "type": "Code List"}}, "conceptId": "C101816", "definition": "Eastern Cooperative Oncology Group Performance Status test name.", "extensible": "false", "name": "QS-Eastern Cooperative Oncology Group Performance Status Test Name", "preferredTerm": "CDISC Questionnaire ECOG Test Name Terminology", "submissionValue": "ECOG TEST", "synonyms": ["QS-Eastern Cooperative Oncology Group Performance Status Test Name"], "terms": [{"conceptId": "C102408", "definition": "ECOG Performance Status - Performance Status.", "preferredTerm": "ECOG - Performance Status", "submissionValue": "ECOG1-Performance Status", "synonyms": ["ECOG1-Performance Status"]}]}