{"_links": {"parentPackage": {"href": "/mdr/ct/packages/qrsct-2015-09-25", "title": "QRS Controlled Terminology Package 23 Effective 2015-09-25", "type": "Terminology"}, "priorVersion": {"href": "/mdr/ct/packages/qrsct-2015-06-26/codelists/C103458", "title": "CDISC Questionnaire ADCS-CGIC Test Name Terminology", "type": "Code List"}, "rootItem": {"href": "/mdr/root/ct/qrsct/codelists/C103458", "title": "Version-agnostic anchor resource for codelist C103458", "type": "Root Value Domain"}, "self": {"href": "/mdr/ct/packages/qrsct-2015-09-25/codelists/C103458", "title": "CDISC Questionnaire ADCS-CGIC Test Name Terminology", "type": "Code List"}}, "conceptId": "C103458", "definition": "Alzheimer's Disease Cooperative Study-Clinical Global Impression of Change test name.", "extensible": "false", "name": "QS-Alzheimer's Disease Cooperative Study-Clinical Global Impression of Change Questionnaire Test Name", "preferredTerm": "CDISC Questionnaire ADCS-CGIC Test Name Terminology", "submissionValue": "ADCS-CGIC TEST", "synonyms": ["QS-Alzheimer's Disease Cooperative Study-Clinical Global Impression of Change Questionnaire Test Name"], "terms": [{"conceptId": "C103531", "definition": "Alzheimer's Disease Cooperative Study-Clinical Global Impression of Change - Clinical impression of change from baseline.", "preferredTerm": "ADCS-CGIC - Clinical Impression of Change from Baseline", "submissionValue": "ACGC01-Clinical Impression of Change", "synonyms": ["ACGC01-Clinical Impression of Change"]}]}