{"_links": {"parentPackage": {"href": "/mdr/ct/packages/qrsct-2015-09-25", "title": "QRS Controlled Terminology Package 23 Effective 2015-09-25", "type": "Terminology"}, "priorVersion": {"href": "/mdr/ct/packages/qrsct-2015-06-26/codelists/C103488", "title": "CDISC Questionnaire UPS Test Name Terminology", "type": "Code List"}, "rootItem": {"href": "/mdr/root/ct/qrsct/codelists/C103488", "title": "Version-agnostic anchor resource for codelist C103488", "type": "Root Value Domain"}, "self": {"href": "/mdr/ct/packages/qrsct-2015-09-25/codelists/C103488", "title": "CDISC Questionnaire UPS Test Name Terminology", "type": "Code List"}}, "conceptId": "C103488", "definition": "Urgency Perception Scale test name.", "extensible": "false", "name": "QS-Urgency Perception Scale Questionnaire Test Name", "preferredTerm": "CDISC Questionnaire UPS Test Name Terminology", "submissionValue": "UPS TEST", "synonyms": ["QS-Urgency Perception Scale Questionnaire Test Name"], "terms": [{"conceptId": "C103761", "definition": "Urgency Perception Scale - Which of the following would typically describe your experience when you have a desire to urinate.", "preferredTerm": "UPS - Describe Your Experience When You Desire to Urinate", "submissionValue": "UPS01-Describe Your Desire to Urinate", "synonyms": ["UPS01-Describe Your Desire to Urinate"]}]}