{"_links": {"parentPackage": {"href": "/mdr/ct/packages/qrsct-2015-09-25", "title": "QRS Controlled Terminology Package 23 Effective 2015-09-25", "type": "Terminology"}, "priorVersion": {"href": "/mdr/ct/packages/qrsct-2015-06-26/codelists/C105133", "title": "CDISC Questionnaire PI v1 Test Name Terminology", "type": "Code List"}, "rootItem": {"href": "/mdr/root/ct/qrsct/codelists/C105133", "title": "Version-agnostic anchor resource for codelist C105133", "type": "Root Value Domain"}, "self": {"href": "/mdr/ct/packages/qrsct-2015-09-25/codelists/C105133", "title": "CDISC Questionnaire PI v1 Test Name Terminology", "type": "Code List"}}, "conceptId": "C105133", "definition": "Pain Intensity test name.", "extensible": "false", "name": "QS-Pain Intensity Questionnaire Test Name", "preferredTerm": "CDISC Questionnaire PI v1 Test Name Terminology", "submissionValue": "PI TEST", "synonyms": ["QS-Pain Intensity Questionnaire Test Name"], "terms": [{"conceptId": "C105262", "definition": "Pain Intensity - Average pain intensity for various time periods of evaluation.", "preferredTerm": "PI - Average Pain Intensity For Various Time Periods of Evaluation", "submissionValue": "PI01-Average Pain Intensity", "synonyms": ["PI01-Average Pain Intensity"]}, {"conceptId": "C105265", "definition": "Pain Intensity - Least pain intensity for various time periods of evaluation.", "preferredTerm": "PI - Least Pain Intensity For Various Time Periods of Evaluation", "submissionValue": "PI01-Least Pain Intensity", "synonyms": ["PI01-Least Pain Intensity"]}, {"conceptId": "C105264", "definition": "Pain Intensity - Maximum pain intensity for various time periods of evaluation.", "preferredTerm": "PI - Maximum Pain Intensity For Various Time Periods of Evaluation", "submissionValue": "PI01-Maximum Pain Intensity", "synonyms": ["PI01-Maximum Pain Intensity"]}, {"conceptId": "C105263", "definition": "Pain Intensity - Minimum pain intensity for various time periods of evaluation.", "preferredTerm": "PI - Minimum Pain Intensity For Various Time Periods of Evaluation", "submissionValue": "PI01-Minimum Pain Intensity", "synonyms": ["PI01-Minimum Pain Intensity"]}, {"conceptId": "C105261", "definition": "Pain Intensity - Pain intensity for various time periods of evaluation.", "preferredTerm": "PI - Pain Intensity For Various Time Periods of Evaluation", "submissionValue": "PI01-Pain Intensity", "synonyms": ["PI01-Pain Intensity"]}, {"conceptId": "C105266", "definition": "Pain Intensity - Worst pain intensity for various time periods of evaluation.", "preferredTerm": "PI - Worst Pain Intensity For Various Time Periods of Evaluation", "submissionValue": "PI01-Worst Pain Intensity", "synonyms": ["PI01-Worst Pain Intensity"]}]}