{"_links": {"parentPackage": {"href": "/mdr/ct/packages/qrsct-2015-09-25", "title": "QRS Controlled Terminology Package 23 Effective 2015-09-25", "type": "Terminology"}, "priorVersion": {"href": "/mdr/ct/packages/qrsct-2015-06-26/codelists/C106669", "title": "CDISC Questionnaire MMRC Test Code Terminology", "type": "Code List"}, "rootItem": {"href": "/mdr/root/ct/qrsct/codelists/C106669", "title": "Version-agnostic anchor resource for codelist C106669", "type": "Root Value Domain"}, "self": {"href": "/mdr/ct/packages/qrsct-2015-09-25/codelists/C106669", "title": "CDISC Questionnaire MMRC Test Code Terminology", "type": "Code List"}}, "conceptId": "C106669", "definition": "Modified Medical Research Council Dyspnea Scale test code.", "extensible": "false", "name": "QS-Modified Medical Research Council Dyspnea Scale Questionnaire Test Code", "preferredTerm": "CDISC Questionnaire MMRC Test Code Terminology", "submissionValue": "MMRC TESTCD", "synonyms": ["QS-Modified Medical Research Council Dyspnea Scale Questionnaire Test Code"], "terms": [{"conceptId": "C106852", "definition": "Modified Medical Research Council Dyspnea Scale - Description of breathlessness.", "preferredTerm": "MMRC - Description of Level of Breathlessness", "submissionValue": "MMRC0101", "synonyms": ["MMRC01-Description of Breathlessness"]}]}