{"_links": {"parentPackage": {"href": "/mdr/ct/packages/qrsct-2015-09-25", "title": "QRS Controlled Terminology Package 23 Effective 2015-09-25", "type": "Terminology"}, "priorVersion": {"href": "/mdr/ct/packages/qrsct-2015-06-26/codelists/C112438", "title": "CDISC Questionnaire EDSS Test Name Terminology", "type": "Code List"}, "rootItem": {"href": "/mdr/root/ct/qrsct/codelists/C112438", "title": "Version-agnostic anchor resource for codelist C112438", "type": "Root Value Domain"}, "self": {"href": "/mdr/ct/packages/qrsct-2015-09-25/codelists/C112438", "title": "CDISC Questionnaire EDSS Test Name Terminology", "type": "Code List"}}, "conceptId": "C112438", "definition": "Kurtzke Expanded Disability Status Scale test name.", "extensible": "false", "name": "QS-Kurtzke Expanded Disability Status Scale Questionnaire Test Name", "preferredTerm": "CDISC Questionnaire EDSS Test Name Terminology", "submissionValue": "EDSS TEST", "synonyms": ["QS-Kurtzke Expanded Disability Status Scale Questionnaire Test Name"], "terms": [{"conceptId": "C112550", "definition": "Kurtzke Expanded Disability Status Scale - Expanded disability score.", "preferredTerm": "EDSS - Expanded Disability Score", "submissionValue": "EDSS01-Expanded Disability Score", "synonyms": ["EDSS01-Expanded Disability Score"]}]}