{"_links": {"parentPackage": {"href": "/mdr/ct/packages/qrsct-2015-09-25", "title": "QRS Controlled Terminology Package 23 Effective 2015-09-25", "type": "Terminology"}, "priorVersion": {"href": "/mdr/ct/packages/qrsct-2015-06-26/codelists/C113846", "title": "CDISC Questionnaire Borg CR10 Test Code Terminology", "type": "Code List"}, "rootItem": {"href": "/mdr/root/ct/qrsct/codelists/C113846", "title": "Version-agnostic anchor resource for codelist C113846", "type": "Root Value Domain"}, "self": {"href": "/mdr/ct/packages/qrsct-2015-09-25/codelists/C113846", "title": "CDISC Questionnaire Borg CR10 Test Code Terminology", "type": "Code List"}}, "conceptId": "C113846", "definition": "Borg CR10 scale test code.", "extensible": "false", "name": "QS-Borg CR10 Scale Test Code", "preferredTerm": "CDISC Questionnaire Borg CR10 Test Code Terminology", "submissionValue": "BORG CR10 TESTCD", "synonyms": ["QS-Borg CR10 Scale Test Code"], "terms": [{"conceptId": "C113888", "definition": "Borg CR10 Scale - Rating of breathlessness.", "preferredTerm": "Borg CR10 - Rating of Breathlessness", "submissionValue": "BCR10101", "synonyms": ["BCR101-Rating of Breathlessness"]}]}