{"_links": {"parentPackage": {"href": "/mdr/ct/packages/qrsct-2015-09-25", "title": "QRS Controlled Terminology Package 23 Effective 2015-09-25", "type": "Terminology"}, "priorVersion": {"href": "/mdr/ct/packages/qrsct-2015-06-26/codelists/C113845", "title": "CDISC Questionnaire Borg CR10 Test Name Terminology", "type": "Code List"}, "rootItem": {"href": "/mdr/root/ct/qrsct/codelists/C113845", "title": "Version-agnostic anchor resource for codelist C113845", "type": "Root Value Domain"}, "self": {"href": "/mdr/ct/packages/qrsct-2015-09-25/codelists/C113845", "title": "CDISC Questionnaire Borg CR10 Test Name Terminology", "type": "Code List"}}, "conceptId": "C113845", "definition": "Borg CR10 scale test name.", "extensible": "false", "name": "QS-Borg CR10 Scale Test Name", "preferredTerm": "CDISC Questionnaire Borg CR10 Test Name Terminology", "submissionValue": "BORG CR10 TEST", "synonyms": ["QS-Borg CR10 Scale Test Name"], "terms": [{"conceptId": "C113888", "definition": "Borg CR10 Scale - Rating of breathlessness.", "preferredTerm": "Borg CR10 - Rating of Breathlessness", "submissionValue": "BCR101-Rating of Breathlessness", "synonyms": ["BCR101-Rating of Breathlessness"]}]}