{"_links": {"parentPackage": {"href": "/mdr/ct/packages/qrsct-2015-09-25", "title": "QRS Controlled Terminology Package 23 Effective 2015-09-25", "type": "Terminology"}, "priorVersion": {"href": "/mdr/ct/packages/qrsct-2015-06-26/codelists/C115390", "title": "CDISC Functional Test HAI Test Code Terminology", "type": "Code List"}, "rootItem": {"href": "/mdr/root/ct/qrsct/codelists/C115390", "title": "Version-agnostic anchor resource for codelist C115390", "type": "Root Value Domain"}, "self": {"href": "/mdr/ct/packages/qrsct-2015-09-25/codelists/C115390", "title": "CDISC Functional Test HAI Test Code Terminology", "type": "Code List"}}, "conceptId": "C115390", "definition": "Hauser Ambulation Index test code.", "extensible": "false", "name": "FT-Hauser Ambulation Index Functional Test Test Code", "preferredTerm": "CDISC Functional Test HAI Test Code Terminology", "submissionValue": "HAI TESTCD", "synonyms": ["FT-Hauser Ambulation Index Functional Test Test Code"], "terms": [{"conceptId": "C115806", "definition": "Hauser Ambulation Index - Ambulation index.", "preferredTerm": "HAI - Ambulation Index", "submissionValue": "HAI0101", "synonyms": ["HAI01-Ambulation Index"]}]}