{"_links": {"parentPackage": {"href": "/mdr/ct/packages/qrsct-2015-09-25", "title": "QRS Controlled Terminology Package 23 Effective 2015-09-25", "type": "Terminology"}, "priorVersion": {"href": "/mdr/ct/packages/qrsct-2015-06-26/codelists/C115389", "title": "CDISC Functional Test HAI Test Name Terminology", "type": "Code List"}, "rootItem": {"href": "/mdr/root/ct/qrsct/codelists/C115389", "title": "Version-agnostic anchor resource for codelist C115389", "type": "Root Value Domain"}, "self": {"href": "/mdr/ct/packages/qrsct-2015-09-25/codelists/C115389", "title": "CDISC Functional Test HAI Test Name Terminology", "type": "Code List"}}, "conceptId": "C115389", "definition": "Hauser Ambulation Index test name.", "extensible": "false", "name": "FT-Hauser Ambulation Index Functional Test Test Name", "preferredTerm": "CDISC Functional Test HAI Test Name Terminology", "submissionValue": "HAI TEST", "synonyms": ["FT-Hauser Ambulation Index Functional Test Test Name"], "terms": [{"conceptId": "C115806", "definition": "Hauser Ambulation Index - Ambulation index.", "preferredTerm": "HAI - Ambulation Index", "submissionValue": "HAI01-Ambulation Index", "synonyms": ["HAI01-Ambulation Index"]}]}