{"_links": {"parentPackage": {"href": "/mdr/ct/packages/qrsct-2015-09-25", "title": "QRS Controlled Terminology Package 23 Effective 2015-09-25", "type": "Terminology"}, "priorVersion": {"href": "/mdr/ct/packages/qrsct-2015-06-26/codelists/C117991", "title": "CDISC Questionnaire ESRS-A Test Code Terminology", "type": "Code List"}, "rootItem": {"href": "/mdr/root/ct/qrsct/codelists/C117991", "title": "Version-agnostic anchor resource for codelist C117991", "type": "Root Value Domain"}, "self": {"href": "/mdr/ct/packages/qrsct-2015-09-25/codelists/C117991", "title": "CDISC Questionnaire ESRS-A Test Code Terminology", "type": "Code List"}}, "conceptId": "C117991", "definition": "Extrapyramidal Symptom Rating Scale-Abbreviated test code.", "extensible": "false", "name": "QS-Extrapyramidal Symptom Rating Scale-Abbreviated Questionnaire Test Code", "preferredTerm": "CDISC Questionnaire ESRS-A Test Code Terminology", "submissionValue": "ESRSA TESTCD", "synonyms": ["QS-Extrapyramidal Symptom Rating Scale-Abbreviated Questionnaire Test Code"], "terms": [{"conceptId": "C118079", "definition": "Extrapyramidal Symptom Rating Scale-Abbreviated - Parkinsonism-Rigidity: Upper limbs.", "preferredTerm": "ESRS-A - Rigidity: Upper Limbs", "submissionValue": "ESRSA101", "synonyms": ["ESRSA1-Rigidity: Upper Limbs"]}, {"conceptId": "C118080", "definition": "Extrapyramidal Symptom Rating Scale-Abbreviated - Parkinsonism-Rigidity: Lower limbs.", "preferredTerm": "ESRS-A - Rigidity: Lower Limbs", "submissionValue": "ESRSA102", "synonyms": ["ESRSA1-Rigidity: Lower Limbs"]}, {"conceptId": "C118081", "definition": "Extrapyramidal Symptom Rating Scale-Abbreviated - Parkinsonism-Rigidity: Neck.", "preferredTerm": "ESRS-A - Rigidity: Neck", "submissionValue": "ESRSA103", "synonyms": ["ESRSA1-Rigidity: Neck"]}, {"conceptId": "C118082", "definition": "Extrapyramidal Symptom Rating Scale-Abbreviated - Parkinsonism-Tremor: Face, jaw/chin, lips, head.", "preferredTerm": "ESRS-A - Tremor: Face/Jaw/Chin/Lips/Head", "submissionValue": "ESRSA104", "synonyms": ["ESRSA1-Tremor: Face/Jaw/Chin/Lips/Head"]}, {"conceptId": "C118083", "definition": "Extrapyramidal Symptom Rating Scale-Abbreviated - Parkinsonism-Tremor: Upper limbs/hands.", "preferredTerm": "ESRS-A - Tremor: Upper Limbs/Hands", "submissionValue": "ESRSA105", "synonyms": ["ESRSA1-Tremor: Upper Limbs/Hands"]}, {"conceptId": "C118084", "definition": "Extrapyramidal Symptom Rating Scale-Abbreviated - Parkinsonism-Tremor: Lower limbs/feet.", "preferredTerm": "ESRS-A - Tremor: Lower Limbs/Feet", "submissionValue": "ESRSA106", "synonyms": ["ESRSA1-Tremor: Lower Limbs/Feet"]}, {"conceptId": "C118085", "definition": "Extrapyramidal Symptom Rating Scale-Abbreviated - Parkinsonism-Reduced facial expression/speech.", "preferredTerm": "ESRS-A - Reduced Facial Expression/Speech", "submissionValue": "ESRSA107", "synonyms": ["ESRSA1-Reduced Facial Expression/Speech"]}, {"conceptId": "C118086", "definition": "Extrapyramidal Symptom Rating Scale-Abbreviated - Parkinsonism-Impaired gait/posture.", "preferredTerm": "ESRS-A - Impaired Gait/Posture", "submissionValue": "ESRSA108", "synonyms": ["ESRSA1-Impaired Gait/Posture"]}, {"conceptId": "C118087", "definition": "Extrapyramidal Symptom Rating Scale-Abbreviated - Parkinsonism-Postural instability.", "preferredTerm": "ESRS-A - Postural Instability", "submissionValue": "ESRSA109", "synonyms": ["ESRSA1-Postural Instability"]}, {"conceptId": "C118088", "definition": "Extrapyramidal Symptom Rating Scale-Abbreviated - Parkinsonism-Bradykinesia/hypokinesia.", "preferredTerm": "ESRS-A - Bradykinesia/Hypokinesia", "submissionValue": "ESRSA110", "synonyms": ["ESRSA1-Bradykinesia/Hypokinesia"]}, {"conceptId": "C118089", "definition": "Extrapyramidal Symptom Rating Scale-Abbreviated - Dystonia: Tongue.", "preferredTerm": "ESRS-A - Dystonia: Tongue", "submissionValue": "ESRSA111", "synonyms": ["ESRSA1-Dystonia: Tongue"]}, {"conceptId": "C118090", "definition": "Extrapyramidal Symptom Rating Scale-Abbreviated - Dystonia: Jaw.", "preferredTerm": "ESRS-A - Dystonia: Jaw", "submissionValue": "ESRSA112", "synonyms": ["ESRSA1-Dystonia: Jaw"]}, {"conceptId": "C118091", "definition": "Extrapyramidal Symptom Rating Scale-Abbreviated - Dystonia: Eyes, upper face, lower face, larynx.", "preferredTerm": "ESRS-A - Dystonia: Eyes/Upper and Lower Face/Larynx", "submissionValue": "ESRSA113", "synonyms": ["ESRSA1-Dystonia: Eyes/Face/Larynx"]}, {"conceptId": "C118092", "definition": "Extrapyramidal Symptom Rating Scale-Abbreviated - Dystonia: Shoulders, upper limbs, hands.", "preferredTerm": "ESRS-A - Dystonia: Shoulder/Upper Limbs/Hands", "submissionValue": "ESRSA114", "synonyms": ["ESRSA1-Dystonia: Shoulder/Up Limb/Hand"]}, {"conceptId": "C118093", "definition": "Extrapyramidal Symptom Rating Scale-Abbreviated - Dystonia: Hips, lower limbs, feet.", "preferredTerm": "ESRS-A - Dystonia: Hips/Lower Limbs/Feet", "submissionValue": "ESRSA115", "synonyms": ["ESRSA1-Dystonia: Hips/Lower Limbs/Feet"]}, {"conceptId": "C118094", "definition": "Extrapyramidal Symptom Rating Scale-Abbreviated - Dystonia: Trunk, neck.", "preferredTerm": "ESRS-A - Dystonia: Trunk/Neck", "submissionValue": "ESRSA116", "synonyms": ["ESRSA1-Dystonia: Trunk/Neck"]}, {"conceptId": "C118095", "definition": "Extrapyramidal Symptom Rating Scale-Abbreviated - Dyskinesia: Tongue.", "preferredTerm": "ESRS-A - Dyskinesia: Tongue", "submissionValue": "ESRSA117", "synonyms": ["ESRSA1-Dyskinesia: Tongue"]}, {"conceptId": "C118096", "definition": "Extrapyramidal Symptom Rating Scale-Abbreviated - Dyskinesia: Jaw.", "preferredTerm": "ESRS-A - Dyskinesia: Jaw", "submissionValue": "ESRSA118", "synonyms": ["ESRSA1-Dyskinesia: Jaw"]}, {"conceptId": "C118097", "definition": "Extrapyramidal Symptom Rating Scale-Abbreviated - Dyskinesia: Eyes, upper face, lower face.", "preferredTerm": "ESRS-A - Dyskinesia: Eyes/Upper Face/Lower Face", "submissionValue": "ESRSA119", "synonyms": ["ESRSA1-Dyskinesia: Eyes/Up Face/Low Face"]}, {"conceptId": "C118098", "definition": "Extrapyramidal Symptom Rating Scale-Abbreviated - Dyskinesia: Shoulders, upper limbs, hands.", "preferredTerm": "ESRS-A - Dyskinesia: Shoulder/Upper Limbs/Hands", "submissionValue": "ESRSA120", "synonyms": ["ESRSA1-Dyskinesia: Shoulder/Up Limb/Hand"]}, {"conceptId": "C118099", "definition": "Extrapyramidal Symptom Rating Scale-Abbreviated - Dyskinesia: Hips, lower limbs, feet.", "preferredTerm": "ESRS-A - Dyskinesia: Hips/Lower Limbs/Feet", "submissionValue": "ESRSA121", "synonyms": ["ESRSA1-Dyskinesia: Hips/Lower Limbs/Feet"]}, {"conceptId": "C118100", "definition": "Extrapyramidal Symptom Rating Scale-Abbreviated - Dyskinesia: Trunk, neck.", "preferredTerm": "ESRS-A - Dyskinesia: Trunk/Neck", "submissionValue": "ESRSA122", "synonyms": ["ESRSA1-Dyskinesia: Trunk/Neck"]}, {"conceptId": "C118101", "definition": "Extrapyramidal Symptom Rating Scale-Abbreviated - Akathisia: Subjective.", "preferredTerm": "ESRS-A - Akathisia: Subjective", "submissionValue": "ESRSA123", "synonyms": ["ESRSA1-Akathisia: Subjective"]}, {"conceptId": "C118102", "definition": "Extrapyramidal Symptom Rating Scale-Abbreviated - Akathisia: Objective.", "preferredTerm": "ESRS-A - Akathisia: Objective", "submissionValue": "ESRSA124", "synonyms": ["ESRSA1-Akathisia: Objective"]}, {"conceptId": "C118103", "definition": "Extrapyramidal Symptom Rating Scale-Abbreviated - Clinical Global Impression (CGI-S): Parkinsonism.", "preferredTerm": "ESRS-A - CGI-S Parkinsonism", "submissionValue": "ESRSA125", "synonyms": ["ESRSA1-CGI-S Parkinsonism"]}, {"conceptId": "C118104", "definition": "Extrapyramidal Symptom Rating Scale-Abbreviated - Clinical Global Impression (CGI-S): Dystonia.", "preferredTerm": "ESRS-A - CGI-S Dystonia", "submissionValue": "ESRSA126", "synonyms": ["ESRSA1-CGI-S Dystonia"]}, {"conceptId": "C118105", "definition": "Extrapyramidal Symptom Rating Scale-Abbreviated - Clinical Global Impression (CGI-S): Dyskinesia.", "preferredTerm": "ESRS-A - CGI-S Dyskinesia", "submissionValue": "ESRSA127", "synonyms": ["ESRSA1-CGI-S Dyskinesia"]}, {"conceptId": "C118106", "definition": "Extrapyramidal Symptom Rating Scale-Abbreviated - Clinical Global Impression (CGI-S): Akathisia.", "preferredTerm": "ESRS-A - CGI-S Akathisia", "submissionValue": "ESRSA128", "synonyms": ["ESRSA1-CGI-S Akathisia"]}]}