{"_links": {"parentPackage": {"href": "/mdr/ct/packages/qrsct-2015-09-25", "title": "QRS Controlled Terminology Package 23 Effective 2015-09-25", "type": "Terminology"}, "priorVersion": {"href": "/mdr/ct/packages/qrsct-2015-06-26/codelists/C119061", "title": "CDISC Questionnaire AUDIT-C Test Name Terminology", "type": "Code List"}, "rootItem": {"href": "/mdr/root/ct/qrsct/codelists/C119061", "title": "Version-agnostic anchor resource for codelist C119061", "type": "Root Value Domain"}, "self": {"href": "/mdr/ct/packages/qrsct-2015-09-25/codelists/C119061", "title": "CDISC Questionnaire AUDIT-C Test Name Terminology", "type": "Code List"}}, "conceptId": "C119061", "definition": "Alcohol Use Disorder Identification Test-Consumption Questions test name.", "extensible": "false", "name": "QS-Alcohol Use Disorder Identification Test-Consumption Questions Questionnaire Test Name", "preferredTerm": "CDISC Questionnaire AUDIT-C Test Name Terminology", "submissionValue": "AUDIT-C TEST", "synonyms": ["QS-Alcohol Use Disorder Identification Test-Consumption Questions Questionnaire Test Name"], "terms": [{"conceptId": "C119120", "definition": "Alcohol Use Disorder Identification Test-Consumption questions - How many standard drinks containing alcohol do you have on a typical day?", "preferredTerm": "AUDIT-C - How Many Alcohol Drinks on a Typical Day", "submissionValue": "ADTC01-Alcohol Drinks on a Typical Day", "synonyms": ["ADTC01-Alcohol Drinks on a Typical Day"]}, {"conceptId": "C119119", "definition": "Alcohol Use Disorder Identification Test-Consumption questions - How often do you have a drink containing alcohol?", "preferredTerm": "AUDIT-C - How Often Have Alcohol Drink", "submissionValue": "ADTC01-How Often Drink Alcohol", "synonyms": ["ADTC01-How Often Drink Alcohol"]}, {"conceptId": "C119121", "definition": "Alcohol Use Disorder Identification Test-Consumption questions - How often do you have six or more drinks on one occasion?", "preferredTerm": "AUDIT-C - How Often Have Six or More Drinks", "submissionValue": "ADTC01-Six or More Drinks One Occasion", "synonyms": ["ADTC01-Six or More Drinks One Occasion"]}]}