{"_links": {"parentPackage": {"href": "/mdr/ct/packages/qrsct-2015-09-25", "title": "QRS Controlled Terminology Package 23 Effective 2015-09-25", "type": "Terminology"}, "priorVersion": {"href": "/mdr/ct/packages/qrsct-2015-06-26/codelists/C120991", "title": "CDISC Clinical Classification MELD Test Code Terminology", "type": "Code List"}, "rootItem": {"href": "/mdr/root/ct/qrsct/codelists/C120991", "title": "Version-agnostic anchor resource for codelist C120991", "type": "Root Value Domain"}, "self": {"href": "/mdr/ct/packages/qrsct-2015-09-25/codelists/C120991", "title": "CDISC Clinical Classification MELD Test Code Terminology", "type": "Code List"}}, "conceptId": "C120991", "definition": "Model for End Stage Liver Disease test code.", "extensible": "false", "name": "CC-Model for End Stage Liver Disease Clinical Classification Test Code", "preferredTerm": "CDISC Clinical Classification MELD Test Code Terminology", "submissionValue": "MELD TESTCD", "synonyms": ["CC-Model for End Stage Liver Disease Clinical Classification Test Code"], "terms": [{"conceptId": "C121076", "definition": "Model for End Stage Liver Disease - MELD score.", "preferredTerm": "MELD - Score", "submissionValue": "MELD0101", "synonyms": ["MELD01-Score"]}]}