{"_links": {"parentPackage": {"href": "/mdr/ct/packages/sendct-2015-12-18", "title": "SEND Controlled Terminology Package 24 Effective 2015-12-18", "type": "Terminology"}, "rootItem": {"href": "/mdr/root/ct/sendct/codelists/C124317", "title": "Version-agnostic anchor resource for codelist C124317", "type": "Root Value Domain"}, "self": {"href": "/mdr/ct/packages/sendct-2015-12-18/codelists/C124317", "title": "CDISC SEND Implantation Findings Result Terminology", "type": "Code List"}}, "conceptId": "C124317", "definition": "Terminology relevant to the results for implantation findings.", "extensible": "true", "name": "Implantation Findings Result", "preferredTerm": "CDISC SEND Implantation Findings Result Terminology", "submissionValue": "ICFINDRS", "synonyms": ["Implantation Findings Result"], "terms": [{"conceptId": "C37987", "definition": "Living; showing characteristics of life.", "preferredTerm": "Life", "submissionValue": "ALIVE"}, {"conceptId": "C28554", "definition": "The absence of life or state of being dead. (NCI)", "preferredTerm": "Death", "submissionValue": "DEAD", "synonyms": ["Died"]}, {"conceptId": "C124600", "definition": "Death of a conceptus that occurred inside the uterus during the embryonic phase of development, with no recognizable tissue structure.", "preferredTerm": "Early Intrauterine Death", "submissionValue": "EARLY INTRAUTERINE DEATH", "synonyms": ["Early IUD"]}, {"conceptId": "C124601", "definition": "An implantation site that contains no discernable embryonic or placental tissue but may contain remnants of the implantation.", "preferredTerm": "Empty Implantation Site", "submissionValue": "EMPTY IMPLANTATION SITE"}, {"conceptId": "C50620", "definition": "Death of a conceptus that occurred inside the uterus.", "preferredTerm": "Intrauterine Fetal Death", "submissionValue": "INTRAUTERINE DEATH", "synonyms": ["IUD"]}, {"conceptId": "C124643", "definition": "Death of a conceptus that occurred inside the uterus during the fetal phase of development, with recognizable tissue structure.", "preferredTerm": "Late Intrauterine Death", "submissionValue": "LATE INTRAUTERINE DEATH", "synonyms": ["Late IUD"]}]}