{"_links": {"parentPackage": {"href": "/mdr/ct/packages/sendct-2015-12-18", "title": "SEND Controlled Terminology Package 24 Effective 2015-12-18", "type": "Terminology"}, "priorVersion": {"href": "/mdr/ct/packages/sendct-2015-09-25/codelists/C65047", "title": "CDISC SDTM Laboratory Test Code Terminology", "type": "Code List"}, "rootItem": {"href": "/mdr/root/ct/sendct/codelists/C65047", "title": "Version-agnostic anchor resource for codelist C65047", "type": "Root Value Domain"}, "self": {"href": "/mdr/ct/packages/sendct-2015-12-18/codelists/C65047", "title": "CDISC SDTM Laboratory Test Code Terminology", "type": "Code List"}}, "conceptId": "C65047", "definition": "Terminology used for laboratory test codes of the CDISC Study Data Tabulation Model.", "extensible": "true", "name": "Laboratory Test Code", "preferredTerm": "CDISC SDTM Laboratory Test Code Terminology", "submissionValue": "LBTESTCD", "synonyms": ["Laboratory Test Code"], "terms": [{"conceptId": "C100429", "definition": "A measurement of the alpha-1 acid glycoprotein in a biological specimen.", "preferredTerm": "Alpha-1 Acid Glycoprotein Measurement", "submissionValue": "A1AGLP", "synonyms": ["Alpha-1 Acid Glycoprotein"]}, {"conceptId": "C80167", "definition": "A measurement of the alpha-1 antitrypsin in a biological specimen.", "preferredTerm": "Alpha-1 Antitrypsin Measurement", "submissionValue": "A1ANTRYP", "synonyms": ["Alpha-1 Antitrypsin", "Serum Trypsin Inhibitor"]}, {"conceptId": "C100462", "definition": "A relative measurement (ratio or percentage) of the alpha-1 microglobulin to creatinine in a biological specimen.", "preferredTerm": "Alpha-1 Microglobulin to Creatinine Ratio Measurement", "submissionValue": "A1MCREAT", "synonyms": ["Alpha-1 Microglobulin/Creatinine"]}, {"conceptId": "C100461", "definition": "A measurement of the alpha-1 microglobulin in a biological specimen.", "preferredTerm": "Alpha-1 Microglobulin Measurement", "submissionValue": "A1MICG", "synonyms": ["Alpha-1 Microglobulin", "Protein HC"]}, {"conceptId": "C80168", "definition": "A measurement of the alpha-2 macroglobulin in a biological specimen.", "preferredTerm": "Alpha-2 Macroglobulin Measurement", "submissionValue": "A2MACG", "synonyms": ["Alpha-2 Macroglobulin"]}, {"conceptId": "C100430", "definition": "A measurement of the alanine aminopeptidase in a biological specimen.", "preferredTerm": "Alanine Aminopeptidase Measurement", "submissionValue": "AAP", "synonyms": ["Alanine Aminopeptidase"]}, {"conceptId": "C111124", "definition": "A measurement of the abnormal cells in a biological specimen.", "preferredTerm": "Abnormal Cell Count", "submissionValue": "ABNCE", "synonyms": ["Abnormal Cells"]}, {"conceptId": "C74699", "definition": "A measurement of the acanthocytes in a biological specimen.", "preferredTerm": "Acanthocyte Count", "submissionValue": "ACANT", "synonyms": ["Acanthocytes"]}, {"conceptId": "C74633", "definition": "A relative measurement (ratio or percentage) of acanthocytes to all erythrocytes in a biological specimen.", "preferredTerm": "Acanthocyte to Erythrocyte Ratio Measurement", "submissionValue": "ACANTRBC", "synonyms": ["Acanthocytes/Erythrocytes"]}, {"conceptId": "C80169", "definition": "A measurement of the angiotensin converting enzyme in a biological specimen.", "preferredTerm": "Angiotensin Converting Enzyme Measurement", "submissionValue": "ACE", "synonyms": ["Angiotensin Converting Enzyme"]}, {"conceptId": "C92247", "definition": "A measurement of the acetoacetic acid in a biological specimen.", "preferredTerm": "Acetoacetic Acid Measurement", "submissionValue": "ACETOAC", "synonyms": ["Acetoacetate", "Acetoacetic Acid"]}, {"conceptId": "C74838", "definition": "A measurement of the acetylcholine hormone in a biological specimen.", "preferredTerm": "Acetylcholine Measurement", "submissionValue": "ACH", "synonyms": ["Acetylcholine"]}, {"conceptId": "C96560", "definition": "A measurement of the acetylcholinesterase in a biological specimen.", "preferredTerm": "Acetylcholinesterase Measurement", "submissionValue": "ACHE", "synonyms": ["Acetylcholinesterase"]}, {"conceptId": "C96559", "definition": "A measurement of the acetylcholine receptor antibody in a biological specimen.", "preferredTerm": "Acetylcholine Receptor Antibody Measurement", "submissionValue": "ACHRAB", "synonyms": ["Acetylcholine Receptor Antibody"]}, {"conceptId": "C80163", "definition": "A measurement of the acid phosphatase in a biological specimen.", "preferredTerm": "Acid Phosphatase Measurement", "submissionValue": "ACPHOS", "synonyms": ["Acid Phosphatase"]}, {"conceptId": "C103348", "definition": "A measurement of the inhibition of blood coagulation in response to anticoagulant therapies.", "preferredTerm": "Activated Coagulation Time", "submissionValue": "ACT", "synonyms": ["Activated Clot Time", "Activated Clotting Time", "Coagulation Activated"]}, {"conceptId": "C74780", "definition": "A measurement of the adrenocorticotropic hormone in a biological specimen.", "preferredTerm": "Adrenocorticotropic Hormone Measurement", "submissionValue": "ACTH", "synonyms": ["Adrenocorticotropic Hormone"]}, {"conceptId": "C92286", "definition": "A measurement of the acyl coenzyme A oxidase in a biological specimen.", "preferredTerm": "Acyl Coenzyme A Oxidase Measurement", "submissionValue": "ACYLCAOX", "synonyms": ["Acyl CoA Oxidase", "Acyl Coenzyme A Oxidase", "Fatty Acyl Coenzyme A Oxidase"]}, {"conceptId": "C111125", "definition": "A measurement of the adenovirus antibody in a biological specimen.", "preferredTerm": "Adenovirus Antibody Measurement", "submissionValue": "ADENOVAB", "synonyms": ["Adenovirus Antibody"]}, {"conceptId": "C74847", "definition": "A measurement of the antidiuretic hormone in a biological specimen.", "preferredTerm": "Antidiuretic Hormone Measurement", "submissionValue": "ADH", "synonyms": ["Antidiuretic Hormone", "Vasopressin"]}, {"conceptId": "C102257", "definition": "A measurement of the adenosine diphosphate in a biological specimen.", "preferredTerm": "Adenosine Diphosphate Measurement", "submissionValue": "ADP", "synonyms": ["Adenosine Diphosphate"]}, {"conceptId": "C74839", "definition": "A measurement of the adiponectin hormone in a biological specimen.", "preferredTerm": "Adiponectin Measurement", "submissionValue": "ADPNCTN", "synonyms": ["Adiponectin"]}, {"conceptId": "C74913", "definition": "A measurement of the anti-double stranded DNA antibody in a biological specimen.", "preferredTerm": "Anti-Double Stranded DNA Measurement", "submissionValue": "ADSDNA", "synonyms": ["Anti-Double Stranded DNA"]}, {"conceptId": "C98705", "definition": "A measurement of the adenovirus viral load in a biological specimen.", "preferredTerm": "Adenovirus Viral Load Measurement", "submissionValue": "ADVVLD", "synonyms": ["ADV Viral Load"]}, {"conceptId": "C98706", "definition": "A measurement of the anti-activated Factor X in a biological specimen. This test is used to monitor low molecular weight or unfractionated heparin levels in a biological specimen.", "preferredTerm": "Anti-Factor Xa Activity Measurement", "submissionValue": "AFACTXAA", "synonyms": ["Anti-Factor Xa Activity"]}, {"conceptId": "C74732", "definition": "A measurement of the alpha fetoprotein in a biological specimen.", "preferredTerm": "Alpha-fetoprotein Measurement", "submissionValue": "AFP", "synonyms": ["Alpha Fetoprotein"]}, {"conceptId": "C106499", "definition": "A measurement of the alpha fetoprotein activity in a biological specimen.", "preferredTerm": "Alpha Fetoprotein Activity Measurement", "submissionValue": "AFPA", "synonyms": ["Alpha Fetoprotein Activity"]}, {"conceptId": "C96562", "definition": "A measurement of the alpha fetoprotein L1 in a biological specimen.", "preferredTerm": "Alpha Fetoprotein L1 Measurement", "submissionValue": "AFPL1", "synonyms": ["Alpha Fetoprotein L1"]}, {"conceptId": "C96563", "definition": "A measurement of the alpha fetoprotein L2 in a biological specimen.", "preferredTerm": "Alpha Fetoprotein L2 Measurement", "submissionValue": "AFPL2", "synonyms": ["Alpha Fetoprotein L2"]}, {"conceptId": "C96564", "definition": "A measurement of the alpha fetoprotein L3 in a biological specimen.", "preferredTerm": "Alpha Fetoprotein L3 Measurement", "submissionValue": "AFPL3", "synonyms": ["Alpha Fetoprotein L3"]}, {"conceptId": "C96565", "definition": "A relative measurement (ratio or percentage) of alpha fetoprotein L3 to total alpha fetoprotein in a biological specimen.", "preferredTerm": "Alpha Fetoprotein L3 to Total Alpha Fetoprotein Ratio Measurement", "submissionValue": "AFPL3AFP", "synonyms": ["A Fetoprotein L3/A Fetoprotein"]}, {"conceptId": "C124334", "definition": "A measurement of the 1,5-anhydroglucitol in a biological specimen.", "preferredTerm": "1,5-Anhydroglucitol Measurement", "submissionValue": "AG1_5", "synonyms": ["1,5-Anhydroglucitol"]}, {"conceptId": "C111126", "definition": "A measurement of the alpha-hydroxybutyrate dehydrogenase in a biological specimen.", "preferredTerm": "Alpha Hydroxybutyrate Dehydrogenase Measurement", "submissionValue": "AHBDH", "synonyms": ["Alpha Hydroxybutyrate Dehydrogenase"]}, {"conceptId": "C122091", "definition": "A measurement of the alanine in a biological specimen.", "preferredTerm": "Alanine Measurement", "submissionValue": "ALA", "synonyms": ["Alanine"]}, {"conceptId": "C64431", "definition": "A measurement of the albumin protein in a biological specimen.", "preferredTerm": "Albumin Measurement", "submissionValue": "ALB", "synonyms": ["Albumin", "Microalbumin"]}, {"conceptId": "C74761", "definition": "A relative measurement (ratio or percentage) of the albumin to the creatinine in a biological specimen.", "preferredTerm": "Albumin To Creatinine Protein Ratio Measurement", "submissionValue": "ALBCREAT", "synonyms": ["Albumin/Creatinine", "Microalbumin/Creatinine Ratio"]}, {"conceptId": "C117829", "definition": "A measurement of the amount of albumin being excreted in urine over a defined period of time (e.g. one hour).", "preferredTerm": "Albumin Urine Excretion Rate", "submissionValue": "ALBEXR", "synonyms": ["Albumin Excretion Rate"]}, {"conceptId": "C74894", "definition": "The ratio of albumin to globulin in a biological specimen.", "preferredTerm": "Albumin to Globulin Ratio Measurement", "submissionValue": "ALBGLOB", "synonyms": ["Albumin/Globulin"]}, {"conceptId": "C122092", "definition": "A measurement of the glycated albumin present in a biological specimen.", "preferredTerm": "Glycated Albumin Measurement", "submissionValue": "ALBGLYCA", "synonyms": ["Glycated Albumin"]}, {"conceptId": "C103453", "definition": "A relative measurement (ratio or percentage) of the albumin to total protein in a biological specimen.", "preferredTerm": "Albumin to Total Protein Ratio Measurement", "submissionValue": "ALBPROT", "synonyms": ["Albumin/Total Protein"]}, {"conceptId": "C74731", "definition": "A measurement of the aldolase enzyme in a biological specimen.", "preferredTerm": "Aldolase Measurement", "submissionValue": "ALDOLASE", "synonyms": ["Aldolase"]}, {"conceptId": "C74841", "definition": "A measurement of the aldosterone hormone in a biological specimen.", "preferredTerm": "Aldosterone Measurement", "submissionValue": "ALDSTRN", "synonyms": ["Aldosterone"]}, {"conceptId": "C64432", "definition": "A measurement of the alkaline phosphatase in a biological specimen.", "preferredTerm": "Alkaline Phosphatase Measurement", "submissionValue": "ALP", "synonyms": ["Alkaline Phosphatase"]}, {"conceptId": "C92287", "definition": "A measurement of the bone specific alkaline phosphatase isoform in a biological specimen.", "preferredTerm": "Bone Specific Alkaline Phosphatase Measurement", "submissionValue": "ALPBS", "synonyms": ["Bone Specific Alkaline Phosphatase"]}, {"conceptId": "C79438", "definition": "A relative measurement (ratio or percentage) of the alkaline phosphatase to creatinine in a biological specimen.", "preferredTerm": "Alkaline Phosphatase to Creatinine Ratio Measurement", "submissionValue": "ALPCREAT", "synonyms": ["Alkaline Phosphatase/Creatinine"]}, {"conceptId": "C119266", "definition": "A measurement of the intestinal specific alkaline phosphatase isoform in a biological specimen.", "preferredTerm": "Intestinal Specific Alkaline Phosphatase Measurement", "submissionValue": "ALPIS", "synonyms": ["Intestinal Specific Alkaline Phosphatase"]}, {"conceptId": "C119267", "definition": "A measurement of the liver specific alkaline phosphatase isoform in a biological specimen.", "preferredTerm": "Liver Specific Alkaline Phosphatase Measurement", "submissionValue": "ALPLS", "synonyms": ["Liver Specific Alkaline Phosphatase"]}, {"conceptId": "C64433", "definition": "A measurement of the alanine aminotransferase in a biological specimen.", "preferredTerm": "Alanine Aminotransferase Measurement", "submissionValue": "ALT", "synonyms": ["Alanine Aminotransferase", "SGPT"]}, {"conceptId": "C106498", "definition": "A relative measurement (ratio or percentage) of the alanine aminotransferase (ALT) to aspartate aminotransferase (AST) present in a sample.", "preferredTerm": "Alanine Aminotransferase to Aspartate Aminotransferase Ratio Measurement", "submissionValue": "ALTAST", "synonyms": ["ALT/AST"]}, {"conceptId": "C103349", "definition": "A measurement of the alpha tocopherol in a biological specimen.", "preferredTerm": "Alpha Tocopherol Measurement", "submissionValue": "ALTCPHRL", "synonyms": ["Alpha Tocopherol"]}, {"conceptId": "C111127", "definition": "A measurement of aluminum in a biological specimen.", "preferredTerm": "Aluminum Measurement", "submissionValue": "ALUMINUM", "synonyms": ["Al", "Aluminum"]}, {"conceptId": "C81975", "definition": "A measurement of the antimitochondrial antibodies in a biological specimen.", "preferredTerm": "Antimitochondrial Antibody Measurement", "submissionValue": "AMA", "synonyms": ["Antimitochondrial Antibodies", "Mitochondrial Antibody"]}, {"conceptId": "C120625", "definition": "A measurement of the anti-Mullerian hormone in a biological specimen.", "preferredTerm": "Anti-Mullerian Hormone Measurement", "submissionValue": "AMH", "synonyms": ["Anti-Mullerian Hormone"]}, {"conceptId": "C74799", "definition": "A measurement of the ammonia in a biological specimen.", "preferredTerm": "Ammonia Measurement", "submissionValue": "AMMONIA", "synonyms": ["Ammonia", "NH3"]}, {"conceptId": "C74666", "definition": "A measurement of the amorphous sediment present in a biological specimen.", "preferredTerm": "Amorphous Sediment Measurement", "submissionValue": "AMORPHSD", "synonyms": ["Amorphous Debris", "Amorphous Sediment"]}, {"conceptId": "C74687", "definition": "A measurement of any amphetamine class drug present in a biological specimen.", "preferredTerm": "Amphetamine Drug Class Measurement", "submissionValue": "AMPHET", "synonyms": ["Amphetamine"]}, {"conceptId": "C102262", "definition": "A measurement of the dextroamphetamine in a biological specimen.", "preferredTerm": "Dextroamphetamine Measurement", "submissionValue": "AMPHETD", "synonyms": ["Dextroamphetamine", "d-amphetamine"]}, {"conceptId": "C64434", "definition": "A measurement of the total enzyme amylase in a biological specimen.", "preferredTerm": "Amylase Measurement", "submissionValue": "AMYLASE", "synonyms": ["Amylase"]}, {"conceptId": "C111243", "definition": "A measurement of macroamylase in a biological specimen.", "preferredTerm": "Macroamylase Measurement", "submissionValue": "AMYLASEM", "synonyms": ["Macroamylase"]}, {"conceptId": "C98767", "definition": "A measurement of the pancreatic enzyme amylase in a biological specimen.", "preferredTerm": "Pancreatic Amylase Measurement", "submissionValue": "AMYLASEP", "synonyms": ["Amylase, Pancreatic"]}, {"conceptId": "C98780", "definition": "A measurement of the salivary enzyme amylase in a biological specimen.", "preferredTerm": "Salivary Amylase Measurement", "submissionValue": "AMYLASES", "synonyms": ["Amylase, Salivary"]}, {"conceptId": "C103352", "definition": "A measurement of amyloid beta protein which is composed of peptides 1 to 38 in a biological specimen.", "preferredTerm": "Amyloid Beta 1-38 Measurement", "submissionValue": "AMYLB38", "synonyms": ["Amyloid Beta 1-38", "Amyloid Beta 38", "Amyloid Beta 38 Protein"]}, {"conceptId": "C103353", "definition": "A measurement of amyloid beta protein which is composed of peptides 1 to 40 in a biological specimen.", "preferredTerm": "Amyloid Beta 1-40 Measurement", "submissionValue": "AMYLB40", "synonyms": ["Amyloid Beta 1-40", "Amyloid Beta 40", "Amyloid Beta 40 Protein"]}, {"conceptId": "C84809", "definition": "A measurement of amyloid beta protein which is composed of peptides 1 to 42 in a biological specimen.", "preferredTerm": "Beta Amyloid 42 Measurement", "submissionValue": "AMYLB42", "synonyms": ["Amyloid Beta 1-42", "Amyloid Beta 42", "Amyloid Beta 42 Protein"]}, {"conceptId": "C81999", "definition": "A measurement of the total amyloid beta in a biological specimen.", "preferredTerm": "Beta Amyloid Measurement", "submissionValue": "AMYLOIDB", "synonyms": ["Amyloid, Beta", "Beta Amyloid"]}, {"conceptId": "C81998", "definition": "A measurement of the total amyloid P in a biological specimen.", "preferredTerm": "Amyloid P Measurement", "submissionValue": "AMYLOIDP", "synonyms": ["Amyloid P"]}, {"conceptId": "C74916", "definition": "A measurement of the total antinuclear antibodies (antibodies that attack the body's own tissue) in a biological specimen.", "preferredTerm": "Antinuclear Antibody Measurement", "submissionValue": "ANA", "synonyms": ["Antinuclear Antibodies"]}, {"conceptId": "C122093", "definition": "A measurement of the antinuclear IgG antibody in a biological specimen.", "preferredTerm": "Antinuclear IgG Antibody Measurement", "submissionValue": "ANAIGGAB", "synonyms": ["Antinuclear IgG Antibody"]}, {"conceptId": "C120626", "definition": "A measurement of the anti-neutrophil cytoplasmic antibody in a biological specimen.", "preferredTerm": "Anti-Neutrophil Cytoplasmic Antibody Measurement", "submissionValue": "ANCAB", "synonyms": ["Anti-Neutrophil Cytoplasmic Antibody"]}, {"conceptId": "C74842", "definition": "A measurement of the androstenediol metabolite in a biological specimen.", "preferredTerm": "Androstenediol Metabolite Measurement", "submissionValue": "ANDSTNDL", "synonyms": ["Androstenediol"]}, {"conceptId": "C74843", "definition": "A measurement of the androstenedione hormone in a biological specimen.", "preferredTerm": "Androstenedione Measurement", "submissionValue": "ANDSTNDN", "synonyms": ["4-Androstenedione", "Androstenedione"]}, {"conceptId": "C91372", "definition": "A test that uses Coombs' reagent to detect the presence of anti-erythrocyte antibodies in a biological specimen.", "preferredTerm": "Indirect Antiglobulin Test", "submissionValue": "ANGLBIND", "synonyms": ["Antiglobulin Test, Indirect", "Indirect Coombs Test"]}, {"conceptId": "C81974", "definition": "A measurement of the antibody or complement-coated erythrocytes in a biological specimen in vivo.", "preferredTerm": "Direct Antiglobulin Test", "submissionValue": "ANGLOBDR", "synonyms": ["Antiglobulin Test, Direct", "Direct Coombs Test"]}, {"conceptId": "C111128", "definition": "A measurement of angiopoietin 1 in a biological specimen.", "preferredTerm": "Angiopoietin 1 Measurement", "submissionValue": "ANGPT1", "synonyms": ["Angiopoietin 1"]}, {"conceptId": "C74844", "definition": "A measurement of the angiotensin I hormone in a biological specimen.", "preferredTerm": "Angiotensin I Measurement", "submissionValue": "ANGTNS1", "synonyms": ["Angiotensin I"]}, {"conceptId": "C74845", "definition": "A measurement of the angiotensin II hormone in a biological specimen.", "preferredTerm": "Angiotensin II Measurement", "submissionValue": "ANGTNS2", "synonyms": ["Angiotensin II"]}, {"conceptId": "C74846", "definition": "A measurement of the angiotensinogen hormone in a biological specimen.", "preferredTerm": "Angiotensinogen Measurement", "submissionValue": "ANGTNSGN", "synonyms": ["Angiotensin Precursor", "Angiotensinogen"]}, {"conceptId": "C74685", "definition": "A computed estimate of the unmeasured anions (those other than the chloride and bicarbonate anions) in a biological specimen.", "preferredTerm": "Anion Gap Measurement", "submissionValue": "ANIONG", "synonyms": ["Anion Gap"]}, {"conceptId": "C74797", "definition": "A measurement of the variability in the size of the red blood cells in a whole blood specimen.", "preferredTerm": "Anisocyte Measurement", "submissionValue": "ANISO", "synonyms": ["Anisocytes", "Anisocytosis"]}, {"conceptId": "C74886", "definition": "A measurement of the atrial natriuretic peptide in a biological specimen.", "preferredTerm": "Atrial Natriuretic Peptide Measurement", "submissionValue": "ANP", "synonyms": ["Atrial Natriuretic Peptide", "Atriopeptin"]}, {"conceptId": "C81958", "definition": "A measurement of the antithrombin activity in a biological specimen.", "preferredTerm": "Antithrombin Activity Measurement", "submissionValue": "ANTHRM", "synonyms": ["Antithrombin", "Antithrombin Activity", "Antithrombin III", "Antithrombin III Activity"]}, {"conceptId": "C81977", "definition": "A measurement of the antithrombin antigen in a biological specimen.", "preferredTerm": "Antithrombin Antigen Measurement", "submissionValue": "ANTHRMAG", "synonyms": ["Antithrombin Antigen", "Antithrombin III Antigen"]}, {"conceptId": "C74691", "definition": "A measurement of any antidepressant class drug present in a biological specimen.", "preferredTerm": "Antidepressant Measurement", "submissionValue": "ANTIDPRS", "synonyms": ["Antidepressants"]}, {"conceptId": "C120627", "definition": "A measurement of the anti-nucleosome antibody in a biological specimen.", "preferredTerm": "Anti-Nucleosome Antibody Measurement", "submissionValue": "ANUAB", "synonyms": ["Anti-Nucleosome Antibody"]}, {"conceptId": "C102258", "definition": "A measurement of the total antiphospholipid antibodies in a biological specimen.", "preferredTerm": "Antiphospholipid Antibody Measurement", "submissionValue": "APLAB", "synonyms": ["Antiphospholipid Antibodies"]}, {"conceptId": "C124335", "definition": "A measurement of the antiphospholipid IgG antibody in a biological specimen.", "preferredTerm": "Anti-Phospholipid IgG Antibody Measurement", "submissionValue": "APLIGGAB", "synonyms": ["Anti-Phospholipid IgG Antibody"]}, {"conceptId": "C124336", "definition": "A measurement of the antiphospholipid IgM antibody in a biological specimen.", "preferredTerm": "Anti-Phospholipid IgM Antibody Measurement", "submissionValue": "APLIGMAB", "synonyms": ["Anti-Phospholipid IgM Antibody"]}, {"conceptId": "C103351", "definition": "A measurement of the alpha-2 antiplasmin in a biological specimen.", "preferredTerm": "Alpha-2 Antiplasmin Measurement", "submissionValue": "APLSMA2", "synonyms": ["Alpha-2 Antiplasmin", "Alpha-2 Plasmin Inhibitor"]}, {"conceptId": "C122094", "definition": "A measurement of the alpha-2 antiplasmin activity in a biological specimen.", "preferredTerm": "Alpha-2 Antiplasmin Activity Measurement", "submissionValue": "APLSMA2A", "synonyms": ["Alpha-2 Antiplasmin Activity"]}, {"conceptId": "C124337", "definition": "A measurement of the total apolipoprotein A in a biological specimen.", "preferredTerm": "Apolipoprotein A Measurement", "submissionValue": "APOA", "synonyms": ["Apolipoprotein A"]}, {"conceptId": "C74733", "definition": "A measurement of the apolipoprotein A1 in a biological specimen.", "preferredTerm": "Apolipoprotein A1 Measurement", "submissionValue": "APOA1", "synonyms": ["Apolipoprotein A1"]}, {"conceptId": "C82000", "definition": "A measurement of the apolipoprotein AII in a biological specimen.", "preferredTerm": "Apolipoprotein AII Measurement", "submissionValue": "APOA2", "synonyms": ["Apolipoprotein AII"]}, {"conceptId": "C103354", "definition": "A measurement of the apolipoprotein A4 in a biological specimen.", "preferredTerm": "Apolipoprotein A4 Measurement", "submissionValue": "APOA4", "synonyms": ["Apolipoprotein A4"]}, {"conceptId": "C103355", "definition": "A measurement of the apolipoprotein A5 in a biological specimen.", "preferredTerm": "Apolipoprotein A5 Measurement", "submissionValue": "APOA5", "synonyms": ["Apolipoprotein A5"]}, {"conceptId": "C74734", "definition": "A measurement of the total apolipoprotein B in a biological specimen.", "preferredTerm": "Apolipoprotein B Measurement", "submissionValue": "APOB", "synonyms": ["Apolipoprotein B"]}, {"conceptId": "C120628", "definition": "A measurement of the apolipoprotein B100 in a biological specimen.", "preferredTerm": "Apolipoprotein B100 Measurement", "submissionValue": "APOB100", "synonyms": ["Apolipoprotein B100"]}, {"conceptId": "C120629", "definition": "A measurement of the apolipoprotein B48 in a biological specimen.", "preferredTerm": "Apolipoprotein B48 Measurement", "submissionValue": "APOB48", "synonyms": ["Apolipoprotein B48"]}, {"conceptId": "C103356", "definition": "A relative measurement (ratio or percentage) of the Apolipoprotein B to Apolipoprotein A1 in a biological specimen.", "preferredTerm": "Apolipoprotein B to Apolipoprotein A1 Ratio Measurement", "submissionValue": "APOBAPA1", "synonyms": ["Apolipoprotein B/Apolipoprotein A1"]}, {"conceptId": "C120630", "definition": "A measurement of the apolipoprotein CI in a biological specimen.", "preferredTerm": "Apolipoprotein CI Measurement", "submissionValue": "APOC1", "synonyms": ["Apolipoprotein CI"]}, {"conceptId": "C100427", "definition": "A measurement of the apolipoprotein C2 in a biological specimen.", "preferredTerm": "Apolipoprotein C2 Measurement", "submissionValue": "APOC2", "synonyms": ["Apolipoprotein C2", "Apolipoprotein CII"]}, {"conceptId": "C82001", "definition": "A measurement of the apolipoprotein CIII in a biological specimen.", "preferredTerm": "Apolipoprotein CIII Measurement", "submissionValue": "APOC3", "synonyms": ["Apolipoprotein CIII"]}, {"conceptId": "C82002", "definition": "A measurement of the apolipoprotein E in a biological specimen.", "preferredTerm": "Apolipoprotein E Measurement", "submissionValue": "APOE", "synonyms": ["Apolipoprotein E"]}, {"conceptId": "C92293", "definition": "A measurement of the apolipoprotein E4 in a biological specimen.", "preferredTerm": "Apolipoprotein E4 Measurement", "submissionValue": "APOE4", "synonyms": ["Apolipoprotein E4"]}, {"conceptId": "C82003", "definition": "A measurement of the apolipoprotein H in a biological specimen.", "preferredTerm": "Apolipoprotein H Measurement", "submissionValue": "APOH", "synonyms": ["Apolipoprotein H"]}, {"conceptId": "C100428", "definition": "A measurement of the apolipoprotein J in a biological specimen.", "preferredTerm": "Apolipoprotein J Measurement", "submissionValue": "APOJ", "synonyms": ["Apolipoprotein J", "Clusterin"]}, {"conceptId": "C111130", "definition": "A relative measurement (ratio or percentage) of the apolipoprotein J to creatinine in a biological specimen.", "preferredTerm": "Apolipoprotein J to Creatinine Ratio Measurement", "submissionValue": "APOJCRT", "synonyms": ["Apolipoprotein J/Creatinine", "Clusterin/Creatinine"]}, {"conceptId": "C119268", "definition": "A measurement of the amyloid alpha precursor protein present in a biological specimen.", "preferredTerm": "Amyloid Alpha Precursor Protein Measurement", "submissionValue": "APPA", "synonyms": ["Amyloid Alpha Precursor Protein"]}, {"conceptId": "C105438", "definition": "A measurement of the amyloid beta precursor protein present in a biological specimen.", "preferredTerm": "Amyloid Beta Precursor Protein Measurement", "submissionValue": "APPB", "synonyms": ["Amyloid Beta Precursor", "Amyloid Beta Precursor Protein", "Amyloid Precursor Beta", "Amyloid Precursor Protein"]}, {"conceptId": "C25377", "definition": "The outward or visible aspect of a specimen.", "preferredTerm": "Appearance", "submissionValue": "APPEAR", "synonyms": ["Specimen Appearance"]}, {"conceptId": "C119269", "definition": "A measurement of the total amyloid precursor protein present in a biological specimen.", "preferredTerm": "Total Amyloid Precursor Protein Measurement", "submissionValue": "APPT", "synonyms": ["Total Amyloid Precursor Protein"]}, {"conceptId": "C111123", "definition": "A measurement of the a proliferation-inducing ligand in a biological specimen.", "preferredTerm": "A Proliferation-Inducing Ligand Measurement", "submissionValue": "APRIL", "synonyms": ["A Proliferation-Inducing Ligand", "CD256", "TNFSF13", "Tumor Necrosis Factor Ligand Superfamily Member 13"]}, {"conceptId": "C100471", "definition": "A measurement of the resistance in the anticoagulation response to activated protein C in a biological specimen.", "preferredTerm": "Activated Protein C Resistance Measurement", "submissionValue": "APROTCRS", "synonyms": ["Activated Protein C Resistance", "Factor V Leiden Screen"]}, {"conceptId": "C38462", "definition": "A measurement of the length of time that it takes for clotting to occur when reagents are added to a plasma specimen. The test is partial due to the absence of tissue factor (Factor III) from the reaction mixture.", "preferredTerm": "Partial Thromboplastin Time", "submissionValue": "APTT", "synonyms": ["Activated Partial Thromboplastin Time"]}, {"conceptId": "C102277", "definition": "A measurement of the length of time that it takes for clotting to occur when a lupus sensitive reagent is added to a plasma specimen.", "preferredTerm": "Lupus Anticoagulant Sensitive APTT Measurement", "submissionValue": "APTTLAS", "synonyms": ["APTT-LA", "Lupus Anticoagulant Sensitive APTT"]}, {"conceptId": "C98862", "definition": "A relative measurement (ratio or percentage) of the subject's partial thromboplastin time to a standard or control partial thromboplastin time.", "preferredTerm": "Activated PTT/Standard Ratio Measurement", "submissionValue": "APTTSTND", "synonyms": ["Activated PTT/Standard", "Activated PTT/Standard PTT", "Activated Partial Thromboplastin Time/Standard Thromboplastin Time"]}, {"conceptId": "C102259", "definition": "A measurement of the arachidonic acid present in a biological specimen.", "preferredTerm": "Arachidonic Acid Measurement", "submissionValue": "ARA", "synonyms": ["Arachidonic Acid"]}, {"conceptId": "C122095", "definition": "A measurement of the arginine in a biological specimen.", "preferredTerm": "Arginine Measurement", "submissionValue": "ARG", "synonyms": ["Arginine"]}, {"conceptId": "C124338", "definition": "A relative measurement (ratio) of the aldosterone to renin activity in a biological specimen.", "preferredTerm": "Aldosterone to Renin Activity Ratio Measurement", "submissionValue": "ARR", "synonyms": ["Aldosterone/Renin Activity"]}, {"conceptId": "C81976", "definition": "A measurement of the anti-Saccharomyces cerevisiae antibody in a biological specimen.", "preferredTerm": "Anti-Saccharomyces cerevisiae Antibody Measurement", "submissionValue": "ASCAB", "synonyms": ["Anti-Saccharomyces cerevisiae Antibody"]}, {"conceptId": "C122096", "definition": "A measurement of the asparagine in a biological specimen.", "preferredTerm": "Asparagine Measurement", "submissionValue": "ASN", "synonyms": ["Asparagine"]}, {"conceptId": "C122097", "definition": "A measurement of the aspartic acid in a biological specimen.", "preferredTerm": "Aspartic Acid Measurement", "submissionValue": "ASP", "synonyms": ["Aspartate", "Aspartic Acid"]}, {"conceptId": "C92269", "definition": "A measurement of the anti-single stranded DNA IgG antibody in a biological specimen.", "preferredTerm": "Anti-Single Stranded DNA IgG Measurement", "submissionValue": "ASSDNA", "synonyms": ["Anti-Single Stranded DNA IgG"]}, {"conceptId": "C64467", "definition": "A measurement of the aspartate aminotransferase in a biological specimen.", "preferredTerm": "Aspartate Aminotransferase Measurement", "submissionValue": "AST", "synonyms": ["Aspartate Aminotransferase", "SGOT"]}, {"conceptId": "C81978", "definition": "A measurement of the aspartate aminotransferase antigen in a biological specimen.", "preferredTerm": "Aspartate Aminotransferase Antigen Measurement", "submissionValue": "ASTAG", "synonyms": ["Aspartate Aminotransferase Antigen", "SGOT Antigen"]}, {"conceptId": "C117830", "definition": "A relative measurement (ratio or percentage) of the aspartate aminotransferase to creatinine in a biological specimen.", "preferredTerm": "Aspartate Aminotransferase to Creatinine Ratio Measurement", "submissionValue": "ASTCREAT", "synonyms": ["Aspartate Aminotransferase/Creatinine"]}, {"conceptId": "C103350", "definition": "A relative measurement (ratio or percentage) of alpha-tocopherol to the total vitamin E in a biological specimen.", "preferredTerm": "Alpha Tocopherol to Vitamin E Ratio Measurement", "submissionValue": "ATPVITE", "synonyms": ["Vitamin E Alpha Tocopherol"]}, {"conceptId": "C74657", "definition": "A measurement of the Auer rods (elongated needle structures that are found in the cytoplasm of leukemic blasts and are formed by clumps of azurophilic granular material) in a biological specimen.", "preferredTerm": "Auer Rod Measurement", "submissionValue": "AUERRODS", "synonyms": ["Auer Rods"]}, {"conceptId": "C116185", "definition": "An observation of azurophilic granules in a biological specimen.", "preferredTerm": "Azurophilic Granule Measurement", "submissionValue": "AZURGRAN", "synonyms": ["Azurophilic Granulation", "Azurophilic Granules"]}, {"conceptId": "C103358", "definition": "A measurement of the Beta-2 glycoprotein 1 IgG antibodies in a biological specimen.", "preferredTerm": "Beta-2 Glycoprotein 1 IgG Antibody Measurement", "submissionValue": "B2G1GGAB", "synonyms": ["Beta-2 Glycoprotein 1 IgG Antibody"]}, {"conceptId": "C103359", "definition": "A measurement of the Beta-2 glycoprotein 1 IgM antibodies in a biological specimen.", "preferredTerm": "Beta-2 Glycoprotein 1 IgM Antibody Measurement", "submissionValue": "B2G1GMAB", "synonyms": ["Beta-2 Glycoprotein 1 IgM Antibody"]}, {"conceptId": "C81979", "definition": "A measurement of the beta-2 glycoprotein antibody in a biological specimen.", "preferredTerm": "Beta-2 Glycoprotein Antibody Measurement", "submissionValue": "B2GLYAB", "synonyms": ["Beta-2 Glycoprotein Antibody"]}, {"conceptId": "C81980", "definition": "A measurement of the beta-2 microglobulin in a biological specimen.", "preferredTerm": "Beta-2 Microglobulin Measurement", "submissionValue": "B2MICG", "synonyms": ["Beta-2 Microglobulin"]}, {"conceptId": "C64469", "definition": "A measurement of the bacteria in a biological specimen.", "preferredTerm": "Bacterial Count", "submissionValue": "BACT", "synonyms": ["Bacteria"]}, {"conceptId": "C111135", "definition": "A measurement of the B-cell activating factor in a biological specimen.", "preferredTerm": "B-Cell Activating Factor Measurement", "submissionValue": "BAFF", "synonyms": ["B-Cell Activating Factor"]}, {"conceptId": "C74688", "definition": "A measurement of any barbiturate class drug present in a biological specimen.", "preferredTerm": "Barbiturate Drug Class Measurement", "submissionValue": "BARB", "synonyms": ["Barbiturates"]}, {"conceptId": "C119270", "definition": "A measurement of the amount of acid or alkali required to return a biological specimen to a normal pH under standard conditions.", "preferredTerm": "Base Excess Measurement", "submissionValue": "BASEEXCS", "synonyms": ["Base Excess"]}, {"conceptId": "C64470", "definition": "A measurement of the basophils in a biological specimen.", "preferredTerm": "Total Basophil Count", "submissionValue": "BASO", "synonyms": ["Basophils"]}, {"conceptId": "C98865", "definition": "A relative measurement (ratio or percentage) of the basophils to total cells in a biological specimen (for example a bone marrow specimen).", "preferredTerm": "Basophil to Total Cell Ratio Measurement", "submissionValue": "BASOCE", "synonyms": ["Basophils/Total Cells"]}, {"conceptId": "C96670", "definition": "A measurement of the immature basophils in a biological specimen.", "preferredTerm": "Immature Basophil Count", "submissionValue": "BASOIM", "synonyms": ["Immature Basophils"]}, {"conceptId": "C96671", "definition": "A relative measurement (ratio or percentage) of immature basophils to total leukocytes in a biological specimen.", "preferredTerm": "Immature Basophil to Leukocyte Ratio Measurement", "submissionValue": "BASOIMLE", "synonyms": ["Immature Basophils/Leukocytes"]}, {"conceptId": "C64471", "definition": "A relative measurement (ratio or percentage) of the basophils to leukocytes in a biological specimen.", "preferredTerm": "Basophil to Leukocyte Ratio", "submissionValue": "BASOLE", "synonyms": ["Basophils/Leukocytes"]}, {"conceptId": "C122098", "definition": "A measurement of the total Borrelia burgdorferi antibody in a biological specimen.", "preferredTerm": "Borrelia burgdorferi Antibody Measurement", "submissionValue": "BBRAB", "synonyms": ["Borrelia burgdorferi Antibody", "Lyme Antibody"]}, {"conceptId": "C122099", "definition": "A measurement of the Borrelia burgdorferi IgA antibody in a biological specimen.", "preferredTerm": "Borrelia burgdorferi IgA Antibody Measurement", "submissionValue": "BBRIGAAB", "synonyms": ["Borrelia burgdorferi IgA Antibody", "Lyme IgA Antibody"]}, {"conceptId": "C122100", "definition": "A measurement of the Borrelia burgdorferi IgG antibody in a biological specimen.", "preferredTerm": "Borrelia burgdorferi IgG Antibody Measurement", "submissionValue": "BBRIGGAB", "synonyms": ["Borrelia burgdorferi IgG Antibody", "Lyme IgG Antibody"]}, {"conceptId": "C122101", "definition": "A measurement of the Borrelia burgdorferi IgM antibody in a biological specimen.", "preferredTerm": "Borrelia burgdorferi IgM Antibody Measurement", "submissionValue": "BBRIGMAB", "synonyms": ["Borrelia burgdorferi IgM Antibody", "Lyme IgM Antibody"]}, {"conceptId": "C123455", "definition": "A measurement of the beta cell function (insulin production and secretion) in a biological specimen.", "preferredTerm": "Beta-cell Function Measurement", "submissionValue": "BCEFNCTN", "synonyms": ["Beta-cell Function"]}, {"conceptId": "C122102", "definition": "A measurement of the beta-defensin 2 in a biological specimen.", "preferredTerm": "Beta-defensin 2 Measurement", "submissionValue": "BD2", "synonyms": ["Beta-defensin 2"]}, {"conceptId": "C82004", "definition": "A measurement of the brain-derived neurotrophic factor in a biological specimen.", "preferredTerm": "Brain-Derived Neurotrophic Factor Measurement", "submissionValue": "BDNF", "synonyms": ["Brain-Derived Neurotrophic Factor"]}, {"conceptId": "C100472", "definition": "A measurement of the beta carotene in a biological specimen.", "preferredTerm": "Beta Carotene Measurement", "submissionValue": "BETACRTN", "synonyms": ["Beta Carotene", "Beta Carotin", "b-Carotene"]}, {"conceptId": "C96568", "definition": "A measurement of the total Beta-hydroxybutyrate in a biological specimen.", "preferredTerm": "Beta-Hydroxybutyrate Measurement", "submissionValue": "BHYXBTR", "synonyms": ["3-Hydroxybutyrate", "B-Hydroxybutyrate", "Beta-Hydroxybutyrate"]}, {"conceptId": "C74667", "definition": "A measurement of the bicarbonate in a biological specimen.", "preferredTerm": "Bicarbonate Measurement", "submissionValue": "BICARB", "synonyms": ["Bicarbonate", "HCO3"]}, {"conceptId": "C64481", "definition": "A measurement of the conjugated or water-soluble bilirubin in a biological specimen.", "preferredTerm": "Direct Bilirubin Measurement", "submissionValue": "BILDIR", "synonyms": ["Direct Bilirubin"]}, {"conceptId": "C74800", "definition": "A measurement of the total bile acids in a biological specimen.", "preferredTerm": "Bile Acid Measurement", "submissionValue": "BILEAC", "synonyms": ["Bile Acid", "Bile Acids", "Bile Salt", "Bile Salts"]}, {"conceptId": "C38037", "definition": "A measurement of the total bilirubin in a biological specimen.", "preferredTerm": "Total Bilirubin Measurement", "submissionValue": "BILI", "synonyms": ["Bilirubin", "Total Bilirubin"]}, {"conceptId": "C64483", "definition": "A measurement of the unconjugated or non-water-soluble bilirubin in a biological specimen.", "preferredTerm": "Indirect Bilirubin Measurement", "submissionValue": "BILIND", "synonyms": ["Indirect Bilirubin"]}, {"conceptId": "C74700", "definition": "A measurement of the bite cells (erythrocytes with the appearance of a bite having been removed, due to oxidative hemolysis) in a biological specimen.", "preferredTerm": "Bite Cell Count", "submissionValue": "BITECE", "synonyms": ["Bite Cells"]}, {"conceptId": "C111136", "definition": "A measurement of the total Bence-Jones protein in a biological specimen.", "preferredTerm": "Bence-Jones Protein Measurement", "submissionValue": "BJPROT", "synonyms": ["Bence-Jones Protein", "Immunoglobulin Light Chains"]}, {"conceptId": "C98710", "definition": "A measurement of the BK virus viral load in a biological specimen.", "preferredTerm": "BK Virus Viral Load Measurement", "submissionValue": "BKVVLD", "synonyms": ["BKV Viral Load"]}, {"conceptId": "C74605", "definition": "A measurement of the blast cells in a biological specimen.", "preferredTerm": "Blast Count", "submissionValue": "BLAST", "synonyms": ["Blasts"]}, {"conceptId": "C103407", "definition": "A measurement of the immunoblasts in a biological specimen.", "preferredTerm": "Immunoblast Count", "submissionValue": "BLASTIMM", "synonyms": ["Lymphocytes, Immunoblastic"]}, {"conceptId": "C64487", "definition": "A relative measurement (ratio or percentage) of the blasts to leukocytes in a biological specimen.", "preferredTerm": "Blast to Leukocyte Ratio", "submissionValue": "BLASTLE", "synonyms": ["Blasts/Leukocytes"]}, {"conceptId": "C74630", "definition": "A measurement of the leukemic blasts (lymphoblasts that remain in an immature state even when outside the bone marrow) in a biological specimen.", "preferredTerm": "Leukemic Blast Count", "submissionValue": "BLASTLM", "synonyms": ["Leukemic Blasts"]}, {"conceptId": "C89775", "definition": "A measurement of the time from the start to cessation of an induced bleed.", "preferredTerm": "Bleeding Time", "submissionValue": "BLEEDT", "synonyms": ["Bleeding Time", "Clotting Time Homeostasis"]}, {"conceptId": "C106535", "definition": "A relative measurement (ratio or percentage) of immunoblasts to all lymphocytes present in a sample.", "preferredTerm": "Immunoblasts to Lymphocytes Ratio Measurement", "submissionValue": "BLSTIMLY", "synonyms": ["Immunoblasts/Lymphocytes", "Lymphocytes, Immunoblastic/Lymphocytes"]}, {"conceptId": "C74641", "definition": "A relative measurement (ratio or percentage) of the leukemic blasts (immature lymphoblasts) to mature lymphocytes in a biological specimen.", "preferredTerm": "Leukemic Blast to Lymphocyte Ratio Measurement", "submissionValue": "BLSTLMLY", "synonyms": ["Leukemic Blasts/Lymphocytes"]}, {"conceptId": "C102278", "definition": "A measurement of the lymphoblasts (immature cells that differentiate to form lymphocytes) in a biological specimen.", "preferredTerm": "Lymphoblast Count", "submissionValue": "BLSTLY", "synonyms": ["Lymphoblasts"]}, {"conceptId": "C105444", "definition": "A relative measurement (ratio or percentage) of the lymphoblasts to leukocytes in a biological specimen.", "preferredTerm": "Lymphoblast to Leukocyte Ratio Measurement", "submissionValue": "BLSTLYLE", "synonyms": ["Lymphoblasts/Leukocytes"]}, {"conceptId": "C98761", "definition": "A relative measurement (ratio or percentage) of the myeloblasts to total cells in a biological specimen (for example a bone marrow specimen).", "preferredTerm": "Myeloblast to Total Cell Ratio Measurement", "submissionValue": "BLSTMBCE", "synonyms": ["Myeloblasts/Total Cells"]}, {"conceptId": "C98752", "definition": "A measurement of the megakaryoblasts in a biological specimen.", "preferredTerm": "Megakaryoblast Cell Count", "submissionValue": "BLSTMGK", "synonyms": ["Megakaryoblasts"]}, {"conceptId": "C98753", "definition": "A relative measurement (ratio or percentage) of the megakaryoblasts to total cells in a biological specimen (for example a bone marrow specimen).", "preferredTerm": "Megakaryoblast to Total Cell Ratio Measurement", "submissionValue": "BLSTMKCE", "synonyms": ["Megakaryoblasts/Total Cells"]}, {"conceptId": "C98764", "definition": "A relative measurement (ratio or percentage) of the normoblasts to total cells in a biological specimen (for example a bone marrow specimen).", "preferredTerm": "Normoblast to Total Cell Ratio Measurement", "submissionValue": "BLSTNMCE", "synonyms": ["Normoblasts/Total Cells"]}, {"conceptId": "C98870", "definition": "A relative measurement (ratio or percentage) of the pronormoblasts to total cells in a biological specimen (for example a bone marrow specimen).", "preferredTerm": "Pronormoblast to Total Cell Ratio Measurement", "submissionValue": "BLSTPNCE", "synonyms": ["Pronormoblasts/Total Cells"]}, {"conceptId": "C100419", "definition": "A measurement of the ringed sideroblasts (abnormal nucleated erythroblasts with a large number of iron deposits in the perinuclear mitochondria, forming a ring around the nucleus) in a biological specimen.", "preferredTerm": "Ring Sideroblast Measurement", "submissionValue": "BLSTRSID", "synonyms": ["Ringed Sideroblasts"]}, {"conceptId": "C100418", "definition": "A measurement of the sideroblasts (nucleated erythroblasts with iron granules in the cytoplasm) in a biological specimen.", "preferredTerm": "Sideroblast Measurement", "submissionValue": "BLSTSID", "synonyms": ["Sideroblast"]}, {"conceptId": "C74735", "definition": "A measurement of the brain (B-type) natriuretic peptide in a biological specimen.", "preferredTerm": "Brain Natriuretic Peptide Measurement", "submissionValue": "BNP", "synonyms": ["B-Type Natriuretic Peptide", "Brain Natriuretic Peptide"]}, {"conceptId": "C82032", "definition": "A measurement of the proB-type natriuretic peptide in a biological specimen.", "preferredTerm": "ProB-Type Natriuretic Peptide Measurement", "submissionValue": "BNPPRO", "synonyms": ["Pro-Brain Natriuretic Peptide", "ProB-type Natriuretic Peptide", "proBNP"]}, {"conceptId": "C96610", "definition": "A measurement of the N-terminal proB-type natriuretic peptide in a biological specimen.", "preferredTerm": "N-Terminal ProB-type Natriuretic Peptide Measurement", "submissionValue": "BNPPRONT", "synonyms": ["N-Terminal ProB-type Natriuretic Peptide", "N-terminal pro-Brain Natriuretic Peptide", "NT proBNP II"]}, {"conceptId": "C74692", "definition": "A measurement of any benzodiazepine class drug present in a biological specimen.", "preferredTerm": "Benzodiazepine Measurement", "submissionValue": "BNZDZPN", "synonyms": ["Benzodiazepine"]}, {"conceptId": "C75350", "definition": "A measurement of the benzoylecgonine in a biological specimen.", "preferredTerm": "Benzoylecgonine Measurement", "submissionValue": "BNZLCGN", "synonyms": ["Benzoylecgonine", "Cocaine Metabolite"]}, {"conceptId": "C120631", "definition": "A measurement of the bactericidal/permeability-increasing protein antibody in a biological specimen.", "preferredTerm": "Bactericidal/Permeability-Increasing Protein Antibody Measurement", "submissionValue": "BPIAB", "synonyms": ["BPI Auto-antibody", "Bactericidal/Permeability-Inc Protein Ab"]}, {"conceptId": "C74634", "definition": "A relative measurement (ratio or percentage) of bite cells (erythrocytes with the appearance of a bite having been removed, due to oxidative hemolysis) to all erythrocytes in a biological specimen.", "preferredTerm": "Bite Cell to Erythrocyte Ratio Measurement", "submissionValue": "BTECERBC", "synonyms": ["Bite Cells/Erythrocytes"]}, {"conceptId": "C100426", "definition": "A measurement of the beta-trace protein in a biological specimen.", "preferredTerm": "Beta-Trace Protein Measurement", "submissionValue": "BTP", "synonyms": ["Beta-Trace Protein"]}, {"conceptId": "C111142", "definition": "A measurement of the total butyrylcholinesterase in a biological specimen.", "preferredTerm": "Butyrylcholinesterase Measurement", "submissionValue": "BUCHE", "synonyms": ["Acylcholine Acylhydrolase", "Butyrylcholinesterase", "Non-neuronal Cholinesterase", "Plasma Cholinesterase", "Pseudocholinesterase"]}, {"conceptId": "C61019", "definition": "A measurement of the urea nitrogen in a blood specimen.", "preferredTerm": "Blood Urea Nitrogen Measurement", "submissionValue": "BUN", "synonyms": ["Blood Urea Nitrogen"]}, {"conceptId": "C74753", "definition": "A relative measurement (ratio or percentage) (ratio) of the blood urea nitrogen (BUN) to the creatinine in a biological specimen.", "preferredTerm": "Blood Urea Nitrogen To Creatinine Ratio Measurement", "submissionValue": "BUNCREAT", "synonyms": ["BUN/Creatinine"]}, {"conceptId": "C75352", "definition": "A measurement of the buprenorphine drug present in a biological specimen.", "preferredTerm": "Buprenorphine Measurement", "submissionValue": "BUPREN", "synonyms": ["Buprenorphine"]}, {"conceptId": "C74701", "definition": "A measurement of the Burr cells (erythrocytes characterized by the presence of small, blunt projections evenly distributed across the cell surface) in a biological specimen.", "preferredTerm": "Burr Cell Count", "submissionValue": "BURRCE", "synonyms": ["Burr Cells", "Keratocytes"]}, {"conceptId": "C80173", "definition": "A measurement of the complement C1q antibody in a biological specimen.", "preferredTerm": "Complement C1q Antibody Measurement", "submissionValue": "C1QAB", "synonyms": ["Complement C1q Antibody"]}, {"conceptId": "C80174", "definition": "A measurement of the complement C3 in a biological specimen.", "preferredTerm": "Complement C3 Measurement", "submissionValue": "C3", "synonyms": ["Complement C3"]}, {"conceptId": "C80175", "definition": "A measurement of the complement C3a in a biological specimen.", "preferredTerm": "Complement C3a Measurement", "submissionValue": "C3A", "synonyms": ["ASP, Complement C3 DesArg, Acetylation-stimulating Protein", "Complement C3a"]}, {"conceptId": "C80176", "definition": "A measurement of the complement C3b in a biological specimen.", "preferredTerm": "Complement C3b Measurement", "submissionValue": "C3B", "synonyms": ["Complement C3b"]}, {"conceptId": "C119271", "definition": "A measurement of the complement C3d antibody in a biological specimen.", "preferredTerm": "Complement C3d Antibody Measurement", "submissionValue": "C3DAB", "synonyms": ["Complement C3d Antibody"]}, {"conceptId": "C80177", "definition": "A measurement of the complement C4 in a biological specimen.", "preferredTerm": "Complement C4 Measurement", "submissionValue": "C4", "synonyms": ["Complement C4"]}, {"conceptId": "C80178", "definition": "A measurement of the complement C4a in a biological specimen.", "preferredTerm": "Complement C4a Measurement", "submissionValue": "C4A", "synonyms": ["Complement C4a"]}, {"conceptId": "C80179", "definition": "A measurement of the complement C5a in a biological specimen.", "preferredTerm": "Complement C5a Measurement", "submissionValue": "C5A", "synonyms": ["Complement C5a"]}, {"conceptId": "C64488", "definition": "A measurement of the calcium in a biological specimen.", "preferredTerm": "Calcium Measurement", "submissionValue": "CA", "synonyms": ["Calcium"]}, {"conceptId": "C79089", "definition": "A measurement of the cancer antigen 125 in a biological specimen.", "preferredTerm": "CA-125 Measurement", "submissionValue": "CA125AG", "synonyms": ["Cancer Antigen 125"]}, {"conceptId": "C103362", "definition": "A measurement of the cancer antigen 15-3 in a biological specimen.", "preferredTerm": "Cancer Antigen 15-3 Measurement", "submissionValue": "CA15_3AG", "synonyms": ["Cancer Antigen 15-3"]}, {"conceptId": "C81982", "definition": "A measurement of the cancer antigen 19-9 in a biological specimen.", "preferredTerm": "Cancer Antigen 19-9 Measurement", "submissionValue": "CA19_9AG", "synonyms": ["Cancer Antigen 19-9"]}, {"conceptId": "C103361", "definition": "A measurement of the cancer antigen 1 in a biological specimen.", "preferredTerm": "Cancer Antigen 1 Measurement", "submissionValue": "CA1AG", "synonyms": ["Cancer Antigen 1"]}, {"conceptId": "C111143", "definition": "A measurement of the cancer antigen 27-29 in a biological specimen.", "preferredTerm": "Cancer Antigen 27-29 Measurement", "submissionValue": "CA2729AG", "synonyms": ["Cancer Antigen 27-29"]}, {"conceptId": "C106505", "definition": "A measurement of the cancer antigen 72-4 in a biological specimen.", "preferredTerm": "Cancer Antigen 72-4 Measurement", "submissionValue": "CA72_4AG", "synonyms": ["CA 72-4", "Cancer Antigen 72-4", "Carbohydrate Antigen 72-4"]}, {"conceptId": "C74702", "definition": "A measurement of the Cabot rings (red-purple staining, threadlike, ring or figure 8 shaped filaments in an erythrocyte) in a biological specimen.", "preferredTerm": "Cabot Ring Count", "submissionValue": "CABOT", "synonyms": ["Cabot Rings"]}, {"conceptId": "C96589", "definition": "A measurement of the volume of serum or plasma that would be cleared of calcium by excretion of urine for a specified unit of time (e.g. one minute).", "preferredTerm": "Calcium Clearance Measurement", "submissionValue": "CACLR", "synonyms": ["Calcium Clearance"]}, {"conceptId": "C119272", "definition": "A measurement of calcium, which has been corrected for albumin, in a biological specimen.", "preferredTerm": "Calcium Corrected Measurement", "submissionValue": "CACR", "synonyms": ["Calcium Corrected"]}, {"conceptId": "C79439", "definition": "A relative measurement (ratio or percentage) of the calcium to creatinine in a biological specimen.", "preferredTerm": "Calcium to Creatinine Ratio Measurement", "submissionValue": "CACREAT", "synonyms": ["Calcium/Creatinine"]}, {"conceptId": "C117831", "definition": "A measurement of the amount of calcium being excreted in urine over a defined period of time (e.g. one hour).", "preferredTerm": "Calcium Urine Excretion Rate", "submissionValue": "CAEXR", "synonyms": ["Calcium Excretion Rate"]}, {"conceptId": "C75346", "definition": "A measurement of the caffeine in a biological specimen.", "preferredTerm": "Caffeine Measurement", "submissionValue": "CAFFEINE", "synonyms": ["Caffeine"]}, {"conceptId": "C81948", "definition": "A measurement of the ionized calcium in a biological specimen.", "preferredTerm": "Ionized Calcium Measurement", "submissionValue": "CAION", "synonyms": ["Calcium, Ionized"]}, {"conceptId": "C82005", "definition": "A measurement of the calprotectin in a biological specimen.", "preferredTerm": "Calprotectin Measurement", "submissionValue": "CALPRO", "synonyms": ["Calprotectin"]}, {"conceptId": "C124339", "definition": "A measurement of cyclic adenosine 3,5-monophosphate in a biological specimen.", "preferredTerm": "Cyclic Adenosine 3,5-Monophosphate Measurement", "submissionValue": "CAMP", "synonyms": ["Cyclic Adenosine 3,5-Monophosphate"]}, {"conceptId": "C74689", "definition": "A measurement of any cannabinoid class drug present in a biological specimen.", "preferredTerm": "Cannabinoid Drug Class Measurement", "submissionValue": "CANNAB", "synonyms": ["Cannabinoids"]}, {"conceptId": "C103360", "definition": "A measurement of the product of the calcium and phosphate measurements in a biological specimen.", "preferredTerm": "Calcium and Phosphorus Product Measurement", "submissionValue": "CAPHOSPD", "synonyms": ["Calcium - Phosphorus Product"]}, {"conceptId": "C96591", "definition": "A measurement of the carboxyhemoglobin, carbon monoxide-bound hemoglobin, in a biological specimen.", "preferredTerm": "Carboxyhemoglobin Measurement", "submissionValue": "CARBXHGB", "synonyms": ["Carboxyhemoglobin"]}, {"conceptId": "C74682", "definition": "A measurement of the total carnitine in a biological specimen.", "preferredTerm": "Total Carnitine Measurement", "submissionValue": "CARNIT", "synonyms": ["Carnitine"]}, {"conceptId": "C92288", "definition": "A measurement of the carnitine acetyl transferase in a biological specimen.", "preferredTerm": "Carnitine Acetyl Transferase Measurement", "submissionValue": "CARNITAT", "synonyms": ["Carnitine Acetyl Transferase"]}, {"conceptId": "C74677", "definition": "A measurement of the free carnitine in a biological specimen.", "preferredTerm": "Free Carnitine Measurement", "submissionValue": "CARNITF", "synonyms": ["Carnitine, Free"]}, {"conceptId": "C74763", "definition": "A statement that indicates casts were looked for in a biological specimen.", "preferredTerm": "Cast Present Or Absent", "submissionValue": "CASTS", "synonyms": ["Casts"]}, {"conceptId": "C96590", "definition": "A measurement of the calcium sulphate in a biological specimen.", "preferredTerm": "Calcium Sulphate Measurement", "submissionValue": "CASULPH", "synonyms": ["Calcium Sulphate"]}, {"conceptId": "C103357", "definition": "A measurement of the beta catenin in a biological specimen.", "preferredTerm": "Beta Catenin Measurement", "submissionValue": "CATNINB", "synonyms": ["Beta Catenin"]}, {"conceptId": "C80172", "definition": "A measurement of the Bb fragment of complement factor B in a biological specimen.", "preferredTerm": "Complement Bb Measurement", "submissionValue": "CBB", "synonyms": ["Bb Fragment of Complement Factor B", "Bb Fragment of Factor B", "Complement Bb"]}, {"conceptId": "C74850", "definition": "A measurement of the cholecystokinin hormone in a biological specimen.", "preferredTerm": "Cholecystokinin Measurement", "submissionValue": "CCK", "synonyms": ["Cholecystokinin", "Pancreozymin"]}, {"conceptId": "C112236", "definition": "A measurement of the CCL17, chemokine (C-C motif) ligand 17, in a biological specimen.", "preferredTerm": "Chemokine (C-C Motif) Ligand 17 Measurement", "submissionValue": "CCL17", "synonyms": ["ABCD-2", "Chemokine (C-C Motif) Ligand 17", "SCYA17", "TARC", "Thymus and Activation Regulated Chemokine"]}, {"conceptId": "C112237", "definition": "A measurement of the CCL18, chemokine (C-C motif) ligand 18, in a biological specimen.", "preferredTerm": "Chemokine (C-C Motif) Ligand 18 Measurement", "submissionValue": "CCL18", "synonyms": ["AMAC-1", "AMAC1", "CKB7", "Chemokine (C-C Motif) Ligand 18", "DC-CK1", "DCCK1", "MIP-4", "Macrophage inflammatory protein-4", "PARC", "Pulmonary and Activation-Regulated Chemokine", "SCYA18"]}, {"conceptId": "C96595", "definition": "A measurement of the cyclic citrullinated peptide antibody in a biological specimen.", "preferredTerm": "Cyclic Citrullinated Peptide Antibody Measurement", "submissionValue": "CCPAB", "synonyms": ["Cyclic Citrullinated Peptide Antibody"]}, {"conceptId": "C122103", "definition": "A measurement of the CCR5, chemokine (C-C motif) receptor type 5, in a biological specimen.", "preferredTerm": "C-C Chemokine Receptor Type 5 Measurement", "submissionValue": "CCR5", "synonyms": ["C-C Chemokine Receptor Type 5", "CD195"]}, {"conceptId": "C103364", "definition": "A count of the CD1 expressing cells per unit of a biological specimen.", "preferredTerm": "CD1 Expressing Cell Measurement", "submissionValue": "CD1", "synonyms": ["CD1"]}, {"conceptId": "C111146", "definition": "A measurement of the CD10 expressing cells per unit in a biological specimen.", "preferredTerm": "CD10 Expressing Cell Count", "submissionValue": "CD10", "synonyms": ["CD10"]}, {"conceptId": "C105439", "definition": "A count of the CD11a expressing cells per unit of a biological specimen.", "preferredTerm": "CD11A Expressing Cell Count", "submissionValue": "CD11A", "synonyms": ["CD11A", "CD11a"]}, {"conceptId": "C105440", "definition": "A count of the CD11b expressing cells per unit of a biological specimen.", "preferredTerm": "CD11B Expressing Cell Count", "submissionValue": "CD11B", "synonyms": ["CD11B", "CD11b", "Complement Component 3 Receptor 3 Subunit", "Complement Receptor Type 3 Alpha Subunit", "ITGAM Protein", "Integrin Alpha-M"]}, {"conceptId": "C111147", "definition": "A measurement of the CD13 expressing cells per unit in a biological specimen.", "preferredTerm": "CD13 Expressing Cell Count", "submissionValue": "CD13", "synonyms": ["CD13"]}, {"conceptId": "C103365", "definition": "A count of the CD14 expressing cells per unit of a biological specimen.", "preferredTerm": "CD14 Expressing Cell Measurement", "submissionValue": "CD14", "synonyms": ["CD14"]}, {"conceptId": "C122104", "definition": "A relative measurement (ratio or percentage) of CD161a expressing cells to all lymphocytes in a biological specimen.", "preferredTerm": "CD161a to Lymphocyte Ratio Measurement", "submissionValue": "CD161ALY", "synonyms": ["CD161a/Lymphocytes"]}, {"conceptId": "C122105", "definition": "A relative measurement (ratio or percentage) of CD161 expressing cells to all lymphocytes in a biological specimen.", "preferredTerm": "CD161 to Lymphocyte Ratio Measurement", "submissionValue": "CD161LY", "synonyms": ["CD161/Lymphocytes"]}, {"conceptId": "C103808", "definition": "A count of the CD19 expressing cells per unit in a biological specimen.", "preferredTerm": "CD19 Expressing Cell Count", "submissionValue": "CD19", "synonyms": ["CD19"]}, {"conceptId": "C103812", "definition": "A relative measurement (ratio or percentage) of CD19 expressing cells to all lymphocytes in a biological specimen.", "preferredTerm": "CD19 Cell to Lymphocyte Ratio Measurement", "submissionValue": "CD19LY", "synonyms": ["CD19/Lymphocytes"]}, {"conceptId": "C103366", "definition": "A count of the CD2 expressing cells per unit of a biological specimen.", "preferredTerm": "CD2 Expressing Cell Measurement", "submissionValue": "CD2", "synonyms": ["CD2"]}, {"conceptId": "C103368", "definition": "A count of the CD20 expressing cells per unit of a biological specimen.", "preferredTerm": "CD20 Expressing Cell Measurement", "submissionValue": "CD20", "synonyms": ["CD20"]}, {"conceptId": "C111148", "definition": "A measurement of the CD22 expressing cells per unit in a biological specimen.", "preferredTerm": "CD22 Expressing Cell Count", "submissionValue": "CD22", "synonyms": ["CD22"]}, {"conceptId": "C111149", "definition": "A measurement of the CD23 expressing cells per unit in a biological specimen.", "preferredTerm": "CD23 Expressing Cell Count", "submissionValue": "CD23", "synonyms": ["CD23"]}, {"conceptId": "C103367", "definition": "A relative measurement (ratio or percentage) of CD2 expressing cells to all lymphocytes in a biological specimen.", "preferredTerm": "CD2 Expressing Cell to Lymphocyte Ratio Measurement", "submissionValue": "CD2LY", "synonyms": ["CD2/Lymphocytes"]}, {"conceptId": "C103809", "definition": "A count of the CD3 expressing cells per unit in a biological specimen.", "preferredTerm": "CD3 Expressing Cell Count", "submissionValue": "CD3", "synonyms": ["CD3"]}, {"conceptId": "C111150", "definition": "A measurement of the CD33 expressing cells per unit in a biological specimen.", "preferredTerm": "CD33 Expressing Cell Count", "submissionValue": "CD33", "synonyms": ["CD33"]}, {"conceptId": "C102260", "definition": "A measurement of the CD34 expressing cells per unit in a biological specimen.", "preferredTerm": "CD34 Measurement", "submissionValue": "CD34", "synonyms": ["CD34"]}, {"conceptId": "C111151", "definition": "A measurement of the CD38 expressing cells per unit in a biological specimen.", "preferredTerm": "CD38 Expressing Cell Count", "submissionValue": "CD38", "synonyms": ["CD38"]}, {"conceptId": "C103813", "definition": "A relative measurement (ratio or percentage) of CD3 expressing cells to all lymphocytes in a biological specimen.", "preferredTerm": "CD3 Cell to Lymphocyte Ratio Measurement", "submissionValue": "CD3LY", "synonyms": ["CD3/Lymphocytes"]}, {"conceptId": "C103810", "definition": "A count of the CD4 expressing cells per unit in a biological specimen.", "preferredTerm": "CD4 Expressing Cell Count", "submissionValue": "CD4", "synonyms": ["CD4"]}, {"conceptId": "C82006", "definition": "A count of the CD40 cells per unit in a biological specimen.", "preferredTerm": "CD40 Measurement", "submissionValue": "CD40", "synonyms": ["CD40"]}, {"conceptId": "C82007", "definition": "A count of the CD40 ligand cells per unit in a biological specimen.", "preferredTerm": "CD40 Ligand Measurement", "submissionValue": "CD40L", "synonyms": ["CD40 Ligand"]}, {"conceptId": "C122106", "definition": "A relative measurement (ratio or percentage) of CD45 expressing cells to all lymphocytes in a biological specimen.", "preferredTerm": "CD45 to Lymphocyte Ratio Measurement", "submissionValue": "CD45LY", "synonyms": ["CD45/Lymphocytes"]}, {"conceptId": "C122107", "definition": "A relative measurement (ratio or percentage) of CD45RA expressing cells to all lymphocytes in a biological specimen.", "preferredTerm": "CD45RA to Lymphocyte Ratio Measurement", "submissionValue": "CD45RALY", "synonyms": ["CD45RA/Lymphocytes"]}, {"conceptId": "C103814", "definition": "A relative measurement (ratio or percentage) of CD4 expressing cells to the CD8 expressing cells in a biological specimen.", "preferredTerm": "CD4 Cell to CD8 Cell Ratio Measurement", "submissionValue": "CD4CD8", "synonyms": ["CD4/CD8"]}, {"conceptId": "C103815", "definition": "A relative measurement (ratio or percentage) of CD4 expressing cells to all lymphocytes in a biological specimen.", "preferredTerm": "CD4 Cell to Lymphocyte Ratio Measurement", "submissionValue": "CD4LY", "synonyms": ["CD4/Lymphocytes"]}, {"conceptId": "C103369", "definition": "A count of the CD5 expressing cells per unit of a biological specimen.", "preferredTerm": "CD5 Expressing Cell Measurement", "submissionValue": "CD5", "synonyms": ["CD5"]}, {"conceptId": "C103370", "definition": "A count of the CD56 expressing cells per unit of a biological specimen.", "preferredTerm": "CD56 Expressing Cell Measurement", "submissionValue": "CD56", "synonyms": ["CD56"]}, {"conceptId": "C111152", "definition": "A measurement of the CD79A expressing cells per unit in a biological specimen.", "preferredTerm": "CD79A Expressing Cell Count", "submissionValue": "CD79A", "synonyms": ["CD79A"]}, {"conceptId": "C103811", "definition": "A count of the CD8 expressing cells per unit in a biological specimen.", "preferredTerm": "CD8 Expressing Cell Count", "submissionValue": "CD8", "synonyms": ["CD8"]}, {"conceptId": "C103816", "definition": "A relative measurement (ratio or percentage) of CD8 expressing cells to all lymphocytes in a biological specimen.", "preferredTerm": "CD8 Cell to Lymphocyte Ratio Measurement", "submissionValue": "CD8LY", "synonyms": ["CD8/Lymphocytes"]}, {"conceptId": "C103381", "definition": "A measurement of the Clostridium difficile toxin in a biological specimen.", "preferredTerm": "Clostridium difficile Toxin Measurement", "submissionValue": "CDFTXN", "synonyms": ["Clostridium difficile Toxin"]}, {"conceptId": "C101016", "definition": "A measurement of transferrin with a reduced number of carbohydrate moieties in a biological specimen.", "preferredTerm": "Carbohydrate-Deficient Transferrin Measurement", "submissionValue": "CDT", "synonyms": ["Carbohydrate-Deficient Transferrin"]}, {"conceptId": "C81983", "definition": "A measurement of the carcinoembryonic antigen in a biological specimen.", "preferredTerm": "Carcinoembryonic Antigen Measurement", "submissionValue": "CEA", "synonyms": ["Carcinoembryonic Antigen"]}, {"conceptId": "C96592", "definition": "A measurement of the circulating endothelial cells in a biological specimen.", "preferredTerm": "Circulating Endothelial Cell Count", "submissionValue": "CEC", "synonyms": ["Circulating Endothelial Cells"]}, {"conceptId": "C111234", "definition": "A relative measurement (ratio or percentage) of the immature hematopoietic cells to total cells in a biological specimen.", "preferredTerm": "Immature Cell to Total Cell Ratio Measurement", "submissionValue": "CEIMCE", "synonyms": ["Immature Cells/Total Cells"]}, {"conceptId": "C96672", "definition": "A measurement of the total immature cells in a blood specimen.", "preferredTerm": "Immature Cell Count", "submissionValue": "CELLSIM", "synonyms": ["Immature Cells"]}, {"conceptId": "C111153", "definition": "A measurement of the degree, quality or condition of cells in a biological specimen.", "preferredTerm": "Cellularity Measurement", "submissionValue": "CELLULAR", "synonyms": ["Cellularity", "Cellularity Grade"]}, {"conceptId": "C111154", "definition": "A measurement of centromere B antibodies in a biological specimen.", "preferredTerm": "Centromere B Antibody Measurement", "submissionValue": "CENTROAB", "synonyms": ["Anti-Centromere B Antibodies"]}, {"conceptId": "C120632", "definition": "A measurement of the cholesteryl ester transfer protein in a biological specimen.", "preferredTerm": "Cholesteryl Ester Transfer Protein Measurement", "submissionValue": "CETP", "synonyms": ["Cholesteryl Ester Transfer Protein"]}, {"conceptId": "C103380", "definition": "A measurement of the biological activity of cholesteryl ester transfer protein in a biological specimen.", "preferredTerm": "Cholesteryl Ester Transfer Protein Activity Measurement", "submissionValue": "CETPA", "synonyms": ["Cholesteryl Ester Transfer Protein Act"]}, {"conceptId": "C122108", "definition": "A measurement of the chromogranin A in a biological specimen.", "preferredTerm": "Chromogranin A Measurement", "submissionValue": "CGA", "synonyms": ["Chromogranin A"]}, {"conceptId": "C111165", "definition": "A measurement of the cyclic guanosine 3,5-monophosphate in a biological specimen.", "preferredTerm": "Cyclic Guanosine Monophosphate Measurement", "submissionValue": "CGMP", "synonyms": ["Cyclic Guanosine 3,5-Monophosphate"]}, {"conceptId": "C100423", "definition": "A measurement of the complement required to lyse 50 percent of red blood cells in a biological specimen.", "preferredTerm": "CH50 Measurement", "submissionValue": "CH50", "synonyms": ["CH50", "Complement CH50", "Total Hemolytic Complement"]}, {"conceptId": "C120633", "definition": "A measurement of the chylomicrons in a biological specimen.", "preferredTerm": "Chylomicrons Measurement", "submissionValue": "CHLMCRN", "synonyms": ["Chylomicrons"]}, {"conceptId": "C105586", "definition": "A measurement of the cholesterol in a biological specimen.", "preferredTerm": "Cholesterol Measurement", "submissionValue": "CHOL", "synonyms": ["Cholesterol", "Total Cholesterol"]}, {"conceptId": "C80171", "definition": "A relative measurement (ratio or percentage) of total cholesterol to high-density lipoprotein cholesterol (HDL-C) in a biological specimen.", "preferredTerm": "Cholesterol to HDL-Cholesterol Ratio Measurement", "submissionValue": "CHOLHDL", "synonyms": ["Cholesterol/HDL-Cholesterol"]}, {"conceptId": "C92289", "definition": "A measurement of the cholinesterase in a biological specimen.", "preferredTerm": "Cholinesterase Measurement", "submissionValue": "CHOLINES", "synonyms": ["Cholinesterase"]}, {"conceptId": "C111159", "definition": "A measurement of the total chymotrypsin in a biological specimen.", "preferredTerm": "Chymotrypsin Measurement", "submissionValue": "CHYTRYP", "synonyms": ["Chymotrypsin"]}, {"conceptId": "C122109", "definition": "A measurement of the citrulline in a biological specimen.", "preferredTerm": "Citrulline Measurement", "submissionValue": "CIT", "synonyms": ["Citrulline"]}, {"conceptId": "C122110", "definition": "A relative measurement (ratio or percentage) of the citrate to creatinine in a biological specimen.", "preferredTerm": "Citrate to Creatinine Ratio Measurement", "submissionValue": "CITCREAT", "synonyms": ["Citrate/Creatinine", "Citric Acid/Creatinine"]}, {"conceptId": "C92248", "definition": "A measurement of the citrate in a biological specimen.", "preferredTerm": "Citrate Measurement", "submissionValue": "CITRATE", "synonyms": ["Citrate", "Citric Acid"]}, {"conceptId": "C64489", "definition": "A measurement of the total creatine kinase in a biological specimen.", "preferredTerm": "Creatine Kinase Measurement", "submissionValue": "CK", "synonyms": ["CPK", "Creatine Kinase"]}, {"conceptId": "C64490", "definition": "A measurement of the homozygous B-type creatine kinase in a biological specimen.", "preferredTerm": "Creatine Kinase BB Measurement", "submissionValue": "CKBB", "synonyms": ["Creatine Kinase BB"]}, {"conceptId": "C79466", "definition": "A relative measurement (ratio or percentage) of the BB-type creatine kinase to total creatine kinase in a biological specimen.", "preferredTerm": "Creatine Kinase BB to Total Creatine Kinase Ratio Measurement", "submissionValue": "CKBBCK", "synonyms": ["Creatine Kinase BB/Total Creatine Kinase"]}, {"conceptId": "C64491", "definition": "A measurement of the heterozygous MB-type creatine kinase in a biological specimen.", "preferredTerm": "Creatine Kinase MB Measurement", "submissionValue": "CKMB", "synonyms": ["Creatine Kinase MB"]}, {"conceptId": "C79441", "definition": "A relative measurement (ratio or percentage) of the MB-type creatine kinase to total creatine kinase in a biological specimen.", "preferredTerm": "Creatine Kinase MB to Total Creatine Kinase Ratio Measurement", "submissionValue": "CKMBCK", "synonyms": ["Creatine Kinase MB/Total Creatine Kinase"]}, {"conceptId": "C64494", "definition": "A measurement of the homozygous M-type creatine kinase in a biological specimen.", "preferredTerm": "Creatine Kinase MM Measurement", "submissionValue": "CKMM", "synonyms": ["Creatine Kinase MM"]}, {"conceptId": "C79442", "definition": "A relative measurement (ratio or percentage) of the MM-type creatine kinase to total creatine kinase in a biological specimen.", "preferredTerm": "Creatine Kinase MM to Total Creatine Kinase Ratio Measurement", "submissionValue": "CKMMCK", "synonyms": ["Creatine Kinase MM/Total Creatine Kinase"]}, {"conceptId": "C64495", "definition": "A measurement of the chloride in a biological specimen.", "preferredTerm": "Chloride Measurement", "submissionValue": "CL", "synonyms": ["Chloride"]}, {"conceptId": "C96594", "definition": "A measurement of the transparency of a biological specimen.", "preferredTerm": "Clarity Measurement", "submissionValue": "CLARITY", "synonyms": ["Clarity"]}, {"conceptId": "C106509", "definition": "A measurement of the volume of serum or plasma that would be cleared of chloride by excretion of urine for a specified unit of time (e.g. one minute).", "preferredTerm": "Chloride Clearance Measurement", "submissionValue": "CLCLR", "synonyms": ["Chloride Clearance"]}, {"conceptId": "C79440", "definition": "A relative measurement (ratio or percentage) of the chloride to creatinine in a biological specimen.", "preferredTerm": "Chloride to Creatinine Ratio Measurement", "submissionValue": "CLCREAT", "synonyms": ["Chloride/Creatinine"]}, {"conceptId": "C74848", "definition": "A measurement of the calcitonin hormone in a biological specimen.", "preferredTerm": "Calcitonin Measurement", "submissionValue": "CLCTONN", "synonyms": ["Calcitonin"]}, {"conceptId": "C74849", "definition": "A measurement of the calcitriol hormone in a biological specimen.", "preferredTerm": "Calcitriol Measurement", "submissionValue": "CLCTRIOL", "synonyms": ["Calcitriol"]}, {"conceptId": "C117832", "definition": "A measurement of the amount of chloride being excreted in urine over a defined period of time (e.g. one hour).", "preferredTerm": "Chloride Urine Excretion Rate", "submissionValue": "CLEXR", "synonyms": ["Chloride Excretion Rate"]}, {"conceptId": "C102261", "definition": "A measurement of the clue cells in a biological specimen.", "preferredTerm": "Clue Cell Count", "submissionValue": "CLUECE", "synonyms": ["Clue Cells"]}, {"conceptId": "C96596", "definition": "A measurement of the cytomegalovirus IgG antibody in a biological specimen.", "preferredTerm": "Cytomegalovirus IgG Antibody Measurement", "submissionValue": "CMVIGGAB", "synonyms": ["Cytomegalovirus IgG Antibody"]}, {"conceptId": "C96597", "definition": "A measurement of the cytomegalovirus IgM antibody in a biological specimen.", "preferredTerm": "Cytomegalovirus IgM Antibody Measurement", "submissionValue": "CMVIGMAB", "synonyms": ["Cytomegalovirus IgM Antibody"]}, {"conceptId": "C98716", "definition": "A measurement of the cytomegalovirus viral load in a biological specimen.", "preferredTerm": "Cytomegalovirus Viral Load Measurement", "submissionValue": "CMVVLD", "synonyms": ["CMV Viral Load"]}, {"conceptId": "C122111", "definition": "A measurement of the centromere IgG antibody in a biological specimen.", "preferredTerm": "Centromere IgG Antibody Measurement", "submissionValue": "CNTIGGAB", "synonyms": ["Centromere IgG Antibody", "Centromere Protein B"]}, {"conceptId": "C64545", "definition": "A measurement of the carbon dioxide gas in a biological specimen.", "preferredTerm": "Carbon Dioxide Measurement", "submissionValue": "CO2", "synonyms": ["Carbon Dioxide"]}, {"conceptId": "C112239", "definition": "A measurement of the efficiency of coagulation of a biological specimen. This is calculated by a mathematical formula that takes into account the R value, K value, angle and maximum amplitude of clot formation.", "preferredTerm": "Coagulation Index Measurement", "submissionValue": "COAGIDX", "synonyms": ["CI", "Coagulation Index"]}, {"conceptId": "C74690", "definition": "A measurement of the cocaine present in a biological specimen.", "preferredTerm": "Cocaine Measurement", "submissionValue": "COCAINE", "synonyms": ["Cocaine"]}, {"conceptId": "C111160", "definition": "A measurement of the coccidioides antibody in a biological specimen.", "preferredTerm": "Coccidioides Antibody Measurement", "submissionValue": "COCCAB", "synonyms": ["Coccidioides Antibody"]}, {"conceptId": "C74877", "definition": "A measurement of the codeine present in a biological specimen.", "preferredTerm": "Codeine Measurement", "submissionValue": "CODEINE", "synonyms": ["Codeine"]}, {"conceptId": "C103383", "definition": "A measurement of the collagen type IV in a biological specimen.", "preferredTerm": "Collagen Type IV Measurement", "submissionValue": "COL4", "synonyms": ["Collagen Type IV"]}, {"conceptId": "C64546", "definition": "A measurement of the color of a biological specimen.", "preferredTerm": "Color Assessment", "submissionValue": "COLOR", "synonyms": ["Color"]}, {"conceptId": "C111145", "definition": "A measurement of the cartilage oligomeric matrix protein in a biological specimen.", "preferredTerm": "Cartilage Oligomeric Matrix Protein Measurement", "submissionValue": "COMP", "synonyms": ["Cartilage Oligomeric Matrix Protein"]}, {"conceptId": "C102282", "definition": "A measurement of the urine conductivity which is a non-linear function of the electrolyte concentration in the urine.", "preferredTerm": "Urine Conductivity", "submissionValue": "CONDUCTU", "synonyms": ["Urine Conductivity"]}, {"conceptId": "C111161", "definition": "A measurement of copper in a biological specimen.", "preferredTerm": "Copper Measurement", "submissionValue": "COPPER", "synonyms": ["Copper", "Cu"]}, {"conceptId": "C106512", "definition": "A relative measurement (ratio or percentage) of the cortisol to creatinine present in a sample.", "preferredTerm": "Cortisol to Creatinine Ratio Measurement", "submissionValue": "CORCREAT", "synonyms": ["Cortisol/Creatinine"]}, {"conceptId": "C88113", "definition": "A measurement of the free, unbound cortisol in a biological specimen.", "preferredTerm": "Free Cortisol Measurement", "submissionValue": "CORTFR", "synonyms": ["Cortisol, Free"]}, {"conceptId": "C74781", "definition": "A measurement of the cortisol in a biological specimen.", "preferredTerm": "Cortisol Measurement", "submissionValue": "CORTISOL", "synonyms": ["Cortisol", "Total Cortisol"]}, {"conceptId": "C92249", "definition": "A measurement of the cotinine in a biological specimen.", "preferredTerm": "Cotinine Measurement", "submissionValue": "COTININE", "synonyms": ["Cotinine"]}, {"conceptId": "C74736", "definition": "A measurement of the C (connecting) peptide of insulin in a biological specimen.", "preferredTerm": "C-peptide Measurement", "submissionValue": "CPEPTIDE", "synonyms": ["C-peptide"]}, {"conceptId": "C92432", "definition": "A measurement of the Chlamydia pneumoniae IgA antibody in a biological specimen.", "preferredTerm": "Chlamydia pneumoniae IgA Antibody Measurement", "submissionValue": "CPNIGAAB", "synonyms": ["Chlamydia pneumoniae IgA Antibody"]}, {"conceptId": "C92433", "definition": "A measurement of the Chlamydia pneumoniae IgM in a biological specimen.", "preferredTerm": "Chlamydia pneumoniae IgM Antibody Measurement", "submissionValue": "CPNIGMAB", "synonyms": ["Chlamydia pneumoniae IgM Antibody"]}, {"conceptId": "C122112", "definition": "A measurement of the cardiolipin IgA antibody in a biological specimen.", "preferredTerm": "Cardiolipin IgA Antibody Measurement", "submissionValue": "CRDIGAAB", "synonyms": ["Cardiolipin IgA Antibody"]}, {"conceptId": "C111144", "definition": "A measurement of the cardiolipin IgG antibody in a biological specimen.", "preferredTerm": "Cardiolipin IgG Antibody Measurement", "submissionValue": "CRDIGGAB", "synonyms": ["Anti-Cardiolipin IgG Antibody", "Cardiolipin IgG Antibody"]}, {"conceptId": "C103363", "definition": "A measurement of the cardiolipin IgM antibodies in a biological specimen.", "preferredTerm": "Cardiolipin IgM Antibody Measurement", "submissionValue": "CRDIGMAB", "synonyms": ["Cardiolipin IgM Antibody"]}, {"conceptId": "C64547", "definition": "A measurement of the creatinine in a biological specimen.", "preferredTerm": "Creatinine Measurement", "submissionValue": "CREAT", "synonyms": ["Creatinine"]}, {"conceptId": "C25747", "definition": "A measurement of the volume of serum or plasma that would be cleared of creatinine by excretion of urine for a specified unit of time (e.g. one minute).", "preferredTerm": "Creatinine Clearance", "submissionValue": "CREATCLR", "synonyms": ["Creatinine Clearance"]}, {"conceptId": "C117833", "definition": "A measurement of the amount of creatinine being excreted in urine over a defined amount of time (e.g. one hour).", "preferredTerm": "Creatinine Urine Excretion Rate", "submissionValue": "CREATEXR", "synonyms": ["Creatinine Excretion Rate"]}, {"conceptId": "C74703", "definition": "A measurement of the Burr cells (erythrocytes characterized by the presence of multiple small, sharp projections evenly distributed across the cell surface) in a biological specimen.", "preferredTerm": "Crenated Cell Measurement", "submissionValue": "CRENCE", "synonyms": ["Crenated Cells", "Echinocytes"]}, {"conceptId": "C74851", "definition": "A measurement of the corticotropin releasing hormone in a biological specimen.", "preferredTerm": "Corticotropin Releasing Hormone Measurement", "submissionValue": "CRH", "synonyms": ["Corticotropin Releasing Factor", "Corticotropin Releasing Hormone"]}, {"conceptId": "C100432", "definition": "A measurement of ceruloplasmin in a biological specimen.", "preferredTerm": "Ceruloplasmin Measurement", "submissionValue": "CRLPLSMN", "synonyms": ["Caeruloplasmin", "Ceruloplasmin"]}, {"conceptId": "C64548", "definition": "A measurement of the C reactive protein in a biological specimen.", "preferredTerm": "C-Reactive Protein Measurement", "submissionValue": "CRP", "synonyms": ["C Reactive Protein"]}, {"conceptId": "C106511", "definition": "A relative measurement (ratio or percentage) of the corticosterone to creatinine present in a sample.", "preferredTerm": "Corticosterone to Creatinine Ratio Measurement", "submissionValue": "CRTCREAT", "synonyms": ["Corticosterone/Creatinine"]}, {"conceptId": "C79434", "definition": "A measurement of corticosterone in a biological specimen.", "preferredTerm": "Corticosterone Measurement", "submissionValue": "CRTRONE", "synonyms": ["Corticosterone"]}, {"conceptId": "C111164", "definition": "A measurement of cryoglobulin in a biological specimen.", "preferredTerm": "Cryoglobulin Measurement", "submissionValue": "CRYOGLBN", "synonyms": ["Cryoglobulin"]}, {"conceptId": "C74673", "definition": "A statement that indicates crystals were looked for in a biological specimen.", "preferredTerm": "Crystal Present Or Absent", "submissionValue": "CRYSTALS", "synonyms": ["Crystals"]}, {"conceptId": "C120634", "definition": "A measurement of the total cathepsin antibody in a biological specimen.", "preferredTerm": "Cathepsin Antibody Measurement", "submissionValue": "CSAB", "synonyms": ["Cathepsin Antibody"]}, {"conceptId": "C74762", "definition": "A measurement of the bacterial casts present in a biological specimen.", "preferredTerm": "Bacterial Cast Measurement", "submissionValue": "CSBACT", "synonyms": ["Bacterial Casts"]}, {"conceptId": "C96588", "definition": "A measurement of the broad casts in a biological specimen.", "preferredTerm": "Broad Casts Measurement", "submissionValue": "CSBROAD", "synonyms": ["Broad Casts"]}, {"conceptId": "C74764", "definition": "A measurement of the cellular (white blood cell, red blood cell, epithelial and bacterial) casts present in a biological specimen.", "preferredTerm": "Cellular Cast Measurement", "submissionValue": "CSCELL", "synonyms": ["Cellular Casts"]}, {"conceptId": "C74779", "definition": "A measurement of the epithelial cell casts present in a biological specimen.", "preferredTerm": "Epithelial-Cast Measurement", "submissionValue": "CSEPI", "synonyms": ["Epithelial Casts"]}, {"conceptId": "C112220", "definition": "A measurement of the 846 epitope present on the chondroitin sulfate chains of aggrecan in a biological specimen.", "preferredTerm": "Aggrecan Chondroitin Sulfate Epitope 846 Measurement", "submissionValue": "CSEPI846", "synonyms": ["846-Epitope", "Aggrecan Chondroitin Sulfate Epitope 846", "CS846", "Chondroitin Sulfate Epitope 846", "Chondroitin Sulfate Proteoglycan 1 Epitope 846"]}, {"conceptId": "C74766", "definition": "A measurement of the fatty casts present in a biological specimen.", "preferredTerm": "Fatty Cast Measurement", "submissionValue": "CSFAT", "synonyms": ["Fatty Casts"]}, {"conceptId": "C74768", "definition": "A measurement of the granular (coarse and fine) casts present in a biological specimen.", "preferredTerm": "Granular Cast Measurement", "submissionValue": "CSGRAN", "synonyms": ["Granular Casts"]}, {"conceptId": "C74765", "definition": "A measurement of the coarse granular casts present in a biological specimen.", "preferredTerm": "Coarse Granular Cast Measurement", "submissionValue": "CSGRANC", "synonyms": ["Granular Coarse Casts"]}, {"conceptId": "C74769", "definition": "A measurement of the fine granular casts present in a biological specimen.", "preferredTerm": "Granular Fine Cast Measurement", "submissionValue": "CSGRANF", "synonyms": ["Granular Fine Casts"]}, {"conceptId": "C74770", "definition": "A measurement of the hyaline casts present in a biological specimen.", "preferredTerm": "Hyaline Cast Measurement", "submissionValue": "CSHYAL", "synonyms": ["Hyaline Casts"]}, {"conceptId": "C74771", "definition": "A measurement of the mixed (the cast contains a mixture of cell types) casts present in a biological specimen.", "preferredTerm": "Mixed Cast Count", "submissionValue": "CSMIX", "synonyms": ["Mixed Casts"]}, {"conceptId": "C74772", "definition": "A measurement of the red blood cell casts present in a biological specimen.", "preferredTerm": "Red Blood Cell Cast Measurement", "submissionValue": "CSRBC", "synonyms": ["RBC Casts"]}, {"conceptId": "C74776", "definition": "A measurement of the unclassifiable casts present in a biological specimen.", "preferredTerm": "Unclassified Cast Measurement", "submissionValue": "CSUNCLA", "synonyms": ["Unclassified Casts"]}, {"conceptId": "C74777", "definition": "A measurement of the waxy casts present in a biological specimen.", "preferredTerm": "Waxy Cell Cast Measurement", "submissionValue": "CSWAX", "synonyms": ["Waxy Casts"]}, {"conceptId": "C74778", "definition": "A measurement of the white blood cell casts present in a biological specimen.", "preferredTerm": "White Blood Cell Cast Measurement", "submissionValue": "CSWBC", "synonyms": ["WBC Casts"]}, {"conceptId": "C116194", "definition": "A measurement of the cholera toxin B subunit IgG antibody in a biological specimen.", "preferredTerm": "Cholera Toxin B Subunit IgG Antibody Measurement", "submissionValue": "CTBIGGAB", "synonyms": ["Cholera Toxin B Subunit IgG Antibody"]}, {"conceptId": "C96593", "definition": "A measurement of the circulating tumor cells in a biological specimen.", "preferredTerm": "Circulating Tumor Cell Count", "submissionValue": "CTC", "synonyms": ["Circulating Tumor Cells"]}, {"conceptId": "C80160", "definition": "A measurement of the total complement in a biological specimen.", "preferredTerm": "Complement Measurement", "submissionValue": "CTOT", "synonyms": ["Complement Total"]}, {"conceptId": "C100464", "definition": "A measurement of the Chlamydia trachomatis IgA antibody in a biological specimen.", "preferredTerm": "Chlamydia trachomatis IgA Antibody Measurement", "submissionValue": "CTRIGAAB", "synonyms": ["Chlamydia trachomatis IgA Antibody"]}, {"conceptId": "C100466", "definition": "A measurement of the Chlamydia trachomatis IgG antibody in a biological specimen.", "preferredTerm": "Chlamydia trachomatis IgG Antibody Measurement", "submissionValue": "CTRIGGAB", "synonyms": ["Chlamydia trachomatis IgG Antibody"]}, {"conceptId": "C100465", "definition": "A measurement of the Chlamydia trachomatis IgM antibody in a biological specimen.", "preferredTerm": "Chlamydia trachomatis IgM Antibody Measurement", "submissionValue": "CTRIGMAB", "synonyms": ["Chlamydia trachomatis IgM Antibody"]}, {"conceptId": "C103382", "definition": "A measurement of the Clostridium tetani IgG antibody in a biological specimen.", "preferredTerm": "Clostridium tetani IgG Antibody Measurement", "submissionValue": "CTTIGGAB", "synonyms": ["Clostridium tetani IgG Antibody"]}, {"conceptId": "C82038", "definition": "A measurement of the type I collagen C-telopeptides in a biological specimen.", "preferredTerm": "Type I Collagen C-Telopeptide Measurement", "submissionValue": "CTXI", "synonyms": ["Type I Collagen C-Telopeptides", "Type I Collagen X-linked C-telopeptide"]}, {"conceptId": "C82040", "definition": "A measurement of the type II collagen C-telopeptides in a biological specimen.", "preferredTerm": "Type II Collagen C-Telopeptide Measurement", "submissionValue": "CTXII", "synonyms": ["Type II Collagen C-Telopeptides"]}, {"conceptId": "C122113", "definition": "A relative measurement (ratio or percentage) of the type II collagen C-telopeptides to creatinine in a biological specimen.", "preferredTerm": "Type II Collagen C-Telopeptides to Creatinine Ratio Measurement", "submissionValue": "CTXIICRT", "synonyms": ["Type II Collagen C-Telopeptides/Creat"]}, {"conceptId": "C112238", "definition": "A measurement of the CXCL10, chemokine (C-X-C motif) ligand 10, in a biological specimen.", "preferredTerm": "Chemokine (C-X-C Motif) Ligand 10 Measurement", "submissionValue": "CXCL10", "synonyms": ["Chemokine (C-X-C Motif) Ligand 10", "IP-10", "Interferon Gamma-induced Protein 10", "Small-inducible Cytokine B10"]}, {"conceptId": "C100431", "definition": "A measurement of the CXCR3, chemokine (C-X-C motif) receptor 3, in a biological specimen.", "preferredTerm": "Chemokine Receptor CXCR3 Measurement", "submissionValue": "CXCR3", "synonyms": ["CD183", "CXCR3", "Chemokine (C-X-C Motif) Receptor 3", "GPR9"]}, {"conceptId": "C74912", "definition": "A measurement of the acid urate crystals present in a biological specimen.", "preferredTerm": "Acid Urate Crystal Measurement", "submissionValue": "CYACIDU", "synonyms": ["Acid Urate Crystals"]}, {"conceptId": "C105590", "definition": "A measurement of the ammonium biurate crystals present in a biological specimen.", "preferredTerm": "Ammonium Biurate Crystals Measurement", "submissionValue": "CYAMMBIU", "synonyms": ["Acid Ammonium Urate Crystals", "Ammonium Biurate Crystals", "Ammonium Urate Crystals"]}, {"conceptId": "C74759", "definition": "A measurement of the ammonium oxalate crystals present in a urine specimen.", "preferredTerm": "Urine Ammonium Oxalate Crystal Measurement", "submissionValue": "CYAMMOX", "synonyms": ["Ammonium Oxalate Crystals"]}, {"conceptId": "C74665", "definition": "A measurement of the amorphous (Note: phosphate or urate, depending on pH) crystals present in a biological specimen.", "preferredTerm": "Amorphous Crystal Measurement", "submissionValue": "CYAMORPH", "synonyms": ["Amorphous Crystals"]}, {"conceptId": "C92243", "definition": "A measurement of the amorphous phosphate crystals in a biological specimen.", "preferredTerm": "Amorphous Phosphate Crystals Measurement", "submissionValue": "CYAMPPH", "synonyms": ["Amorphous Phosphate Crystals"]}, {"conceptId": "C92244", "definition": "A measurement of the amorphous urate crystals in a biological specimen.", "preferredTerm": "Amorphous Urate Crystals Measurement", "submissionValue": "CYAMPURT", "synonyms": ["Amorphous Urate Crystals"]}, {"conceptId": "C74668", "definition": "A measurement of the bilirubin crystals present in a biological specimen.", "preferredTerm": "Bilirubin Crystal Measurement", "submissionValue": "CYBILI", "synonyms": ["Bilirubin Crystals"]}, {"conceptId": "C74669", "definition": "A measurement of the calcium carbonate crystals present in a biological specimen.", "preferredTerm": "Calcium Carbonate Crystal Measurement", "submissionValue": "CYCACAR", "synonyms": ["Calcium Carbonate Crystals"]}, {"conceptId": "C74670", "definition": "A measurement of the calcium oxalate crystals present in a biological specimen.", "preferredTerm": "Calcium Oxalate Crystal Measurement", "submissionValue": "CYCAOXA", "synonyms": ["Calcium Oxalate Crystals"]}, {"conceptId": "C74671", "definition": "A measurement of the calcium phosphate crystals present in a biological specimen.", "preferredTerm": "Calcium Phosphate Crystal Measurement", "submissionValue": "CYCAPHOS", "synonyms": ["Calcium Phosphate Crystals"]}, {"conceptId": "C124340", "definition": "A measurement of the calcium sulfate crystals present in a biological specimen.", "preferredTerm": "Calcium Sulfate Crystals Measurement", "submissionValue": "CYCASULF", "synonyms": ["Calcium Sulfate Crystals"]}, {"conceptId": "C74672", "definition": "A measurement of the cholesterol crystals present in a biological specimen.", "preferredTerm": "Cholesterol Crystal Measurement", "submissionValue": "CYCHOL", "synonyms": ["Cholesterol Crystals"]}, {"conceptId": "C74674", "definition": "A measurement of the cystine crystals present in a biological specimen.", "preferredTerm": "Cystine Crystal Measurement", "submissionValue": "CYCYSTIN", "synonyms": ["Cystine Crystals"]}, {"conceptId": "C106514", "definition": "A measurement of the cytokeratin 19 fragment 21-1 in a biological specimen.", "preferredTerm": "Cytokeratin Fragment 21-1 Measurement", "submissionValue": "CYFRA211", "synonyms": ["CYFRA21-1", "Cytokeratin 19 Fragment", "Cytokeratin Fragment 21-1"]}, {"conceptId": "C112288", "definition": "A measurement of hemoglobin C crystals in a biological specimen.", "preferredTerm": "Hemoglobin C Crystals Measurement", "submissionValue": "CYHGBC", "synonyms": ["Hemoglobin C Crystals"]}, {"conceptId": "C74754", "definition": "A measurement of the hippuric acid crystals present in a biological specimen.", "preferredTerm": "Hippuric Acid Crystal Measurement", "submissionValue": "CYHIPPAC", "synonyms": ["Hippuric Acid Crystals"]}, {"conceptId": "C74680", "definition": "A measurement of the leucine crystals present in a biological specimen.", "preferredTerm": "Leucine Crystal Measurement", "submissionValue": "CYLEUC", "synonyms": ["Leucine Crystals"]}, {"conceptId": "C74681", "definition": "A measurement of the monosodium urate crystals present in a biological specimen.", "preferredTerm": "Monosodium Urate Crystal Measurement", "submissionValue": "CYMSU", "synonyms": ["Monosodium Urate Crystals"]}, {"conceptId": "C106513", "definition": "A relative measurement (ratio or percentage) of the cystatin C to creatinine present in a sample.", "preferredTerm": "Cystatin C to Creatinine Ratio Measurement", "submissionValue": "CYSCREAT", "synonyms": ["Cystatin C/Creatinine"]}, {"conceptId": "C81951", "definition": "A measurement of the starch crystals in a biological specimen.", "preferredTerm": "Starch Crystal Measurement", "submissionValue": "CYSTARCH", "synonyms": ["Starch Crystals"]}, {"conceptId": "C92290", "definition": "A measurement of the cystatin C in a biological specimen.", "preferredTerm": "Cystatin C Measurement", "submissionValue": "CYSTATC", "synonyms": ["Cystatin C"]}, {"conceptId": "C105441", "definition": "A measurement of the cystine in a biological specimen.", "preferredTerm": "Cystine Measurement", "submissionValue": "CYSTINE", "synonyms": ["Cystine"]}, {"conceptId": "C74755", "definition": "A measurement of the sulfa crystals present in a biological specimen.", "preferredTerm": "Sulfa Crystal Measurement", "submissionValue": "CYSULFA", "synonyms": ["Sulfa Crystals"]}, {"conceptId": "C74756", "definition": "A measurement of the triple phosphate crystals present in a biological specimen.", "preferredTerm": "Triple Phosphate Crystal Measurement", "submissionValue": "CYTRPHOS", "synonyms": ["Triple Phosphate Crystals"]}, {"conceptId": "C74683", "definition": "A measurement of the tyrosine crystals present in a biological specimen.", "preferredTerm": "Tyrosine Crystal Measurement", "submissionValue": "CYTYRO", "synonyms": ["Tyrosine Crystals"]}, {"conceptId": "C74757", "definition": "A measurement of the unclassifiable crystals present in a biological specimen.", "preferredTerm": "Unclassified Crystal Measurement", "submissionValue": "CYUNCLA", "synonyms": ["Unclassified Crystals"]}, {"conceptId": "C74684", "definition": "A measurement of the uric acid crystals present in a biological specimen.", "preferredTerm": "Uric Acid Crystal Measurement", "submissionValue": "CYURIAC", "synonyms": ["Uric Acid Crystals"]}, {"conceptId": "C82621", "definition": "A measurement of the d-dimers in a biological specimen.", "preferredTerm": "D-Dimer Measurement", "submissionValue": "DDIMER", "synonyms": ["D-Dimer"]}, {"conceptId": "C45781", "definition": "A measurement of the compactness of a biological specimen expressed in mass per unit volume.", "preferredTerm": "Density", "submissionValue": "DENSITY", "synonyms": ["Density"]}, {"conceptId": "C111190", "definition": "A measurement of the degenerated leukocytes (leukocytes that show deterioration in form or function) in a biological specimen.", "preferredTerm": "Degenerated Leukocyte Count", "submissionValue": "DGNWBC", "synonyms": ["Degenerated Leukocytes", "Degenerated WBC", "Degenerated White Blood Cells"]}, {"conceptId": "C74852", "definition": "A measurement of the dehydroepiandrosterone hormone in a biological specimen.", "preferredTerm": "Dehydroepiandrosterone Measurement", "submissionValue": "DHEA", "synonyms": ["Dehydroepiandrosterone", "Dehydroisoandrosterone"]}, {"conceptId": "C96629", "definition": "A measurement of the sulfated Dehydroepiandrosterone in a biological specimen.", "preferredTerm": "Sulfated DHEA Measurement", "submissionValue": "DHEAS", "synonyms": ["DHEA Sulfate", "DHEA-S", "Dehydroepiandrosterone Sulfate", "sDHEA"]}, {"conceptId": "C101017", "definition": "A measurement of the catecholamine metabolite, 3,4-Dihydroxyphenylglycol in a biological specimen.", "preferredTerm": "3,4-Dihydroxyphenylglycol Measurement", "submissionValue": "DHPG", "synonyms": ["3,4-Dihydroxyphenylglycol", "3.4 Dihydroxyphenylglycol"]}, {"conceptId": "C74853", "definition": "A measurement of the dihydrotestosterone hormone in a biological specimen.", "preferredTerm": "Dihydrotestosterone Measurement", "submissionValue": "DHT", "synonyms": ["Androstanalone", "Dihydrotestosterone"]}, {"conceptId": "C74878", "definition": "A measurement of the dihydrocodeine present in a biological specimen.", "preferredTerm": "Dihydrocodeine Measurement", "submissionValue": "DIHYDCDN", "synonyms": ["Dihydrocodeine"]}, {"conceptId": "C81973", "definition": "A measurement of the anti-DNA antibodies in a biological specimen.", "preferredTerm": "Anti-DNA Antibody Measurement", "submissionValue": "DNAAB", "synonyms": ["Anti-DNA Antibodies", "Anti-ds-DNA Antibodies"]}, {"conceptId": "C100463", "definition": "A measurement of Dnase-B antibody in a biological specimen.", "preferredTerm": "DNase-B Antibody Measurement", "submissionValue": "DNASEBAB", "synonyms": ["Anti-Dnase B", "DNase-B Antibody"]}, {"conceptId": "C74610", "definition": "A measurement of the Dohle bodies (blue-gray, basophilic, leukocyte inclusions located in the peripheral cytoplasm of neutrophils) in a biological specimen.", "preferredTerm": "Dohle Body Measurement", "submissionValue": "DOHLE", "synonyms": ["Dohle Bodies"]}, {"conceptId": "C103345", "definition": "A measurement of the 3,4-dihydroxyphenylacetic acid in a biological specimen.", "preferredTerm": "3,4-Dihydroxyphenylacetic Acid Measurement", "submissionValue": "DOPAC", "synonyms": ["3,4-Dihydroxyphenylacetic Acid"]}, {"conceptId": "C74854", "definition": "A measurement of the dopamine hormone in a biological specimen.", "preferredTerm": "Dopamine Measurement", "submissionValue": "DOPAMINE", "synonyms": ["Dopamine"]}, {"conceptId": "C79443", "definition": "A measurement of the deoxypyridinoline in a biological specimen.", "preferredTerm": "Deoxypyridinoline Measurement", "submissionValue": "DPD", "synonyms": ["Deoxypyridinoline"]}, {"conceptId": "C79444", "definition": "A relative measurement (ratio or percentage) of the deoxypyridinoline to creatinine in a biological specimen.", "preferredTerm": "Deoxypyridinoline to Creatinine Ratio Measurement", "submissionValue": "DPDCREAT", "synonyms": ["Deoxypyridinoline/Creatinine"]}, {"conceptId": "C103387", "definition": "A measurement of the biological activity of dipeptidyl peptidase-4 in a biological specimen.", "preferredTerm": "Dipeptidyl Peptidase-4 Activity Measurement", "submissionValue": "DPPIVA", "synonyms": ["DPPIV Activity"]}, {"conceptId": "C103388", "definition": "A measurement of the Diphtheria IgG antibodies in a biological specimen.", "preferredTerm": "Diphtheria IgG Antibody Measurement", "submissionValue": "DPTIGGAB", "synonyms": ["Diphtheria IgG Antibody"]}, {"conceptId": "C78139", "definition": "An indication of the presence or absence of recreational drugs or drugs of abuse in a biological specimen.", "preferredTerm": "Drug Test", "submissionValue": "DRUGSCR", "synonyms": ["Drug Screen"]}, {"conceptId": "C96696", "definition": "A measurement of the time it takes a plasma sample to clot after adding dilute Russell's viper venom.", "preferredTerm": "Dilute Russell's Viper Venom Time Measurement", "submissionValue": "DRVVT", "synonyms": ["Dilute Russell's Viper Venom Time", "Lupus Anticoagulant Test"]}, {"conceptId": "C103386", "definition": "A relative measurement (ratio or percentage) of the dilute Russell's viper venom time in a subject sample to a control sample.", "preferredTerm": "Dilute Russell's Viper Venom Time to Control Ratio Measurement", "submissionValue": "DRVVTRT", "synonyms": ["Lupus Anticoagulant Ratio"]}, {"conceptId": "C122114", "definition": "A measurement of the desmoglein 1 antibody in a biological specimen.", "preferredTerm": "Desmoglein 1 Antibody Measurement", "submissionValue": "DSG1AB", "synonyms": ["Desmoglein 1 Antibody"]}, {"conceptId": "C122115", "definition": "A measurement of the desmoglein 3 antibody in a biological specimen.", "preferredTerm": "Desmoglein 3 Antibody Measurement", "submissionValue": "DSG3AB", "synonyms": ["Desmoglein 3 Antibody"]}, {"conceptId": "C100441", "definition": "A measurement of the volume of serum or plasma that would be cleared of Diethylenetriamine pentaacetate (DTPA) through its excretion for a specified unit of time.", "preferredTerm": "Diethylene Triamine Pentaacetic Acid Clearance", "submissionValue": "DTPACLR", "synonyms": ["DTPA Clearance"]}, {"conceptId": "C96600", "definition": "A measurement of the Epstein-Barr capsid IgG antibody in a biological specimen.", "preferredTerm": "Epstein-Barr Capsid IgG Antibody Measurement", "submissionValue": "EBCIGGAB", "synonyms": ["Epstein-Barr Capsid IgG Antibody"]}, {"conceptId": "C96601", "definition": "A measurement of the Epstein-Barr capsid IgM antibody in a biological specimen.", "preferredTerm": "Epstein-Barr Capsid IgM Antibody Measurement", "submissionValue": "EBCIGMAB", "synonyms": ["Epstein-Barr Capsid IgM Antibody"]}, {"conceptId": "C96602", "definition": "A measurement of the Epstein-Barr early antigen in a biological specimen.", "preferredTerm": "Epstein-Barr Early Antigen Measurement", "submissionValue": "EBEAG", "synonyms": ["Epstein-Barr Early Antigen"]}, {"conceptId": "C122116", "definition": "A measurement of the Epstein-Barr early diffuse antigen IgG antibody in a biological specimen.", "preferredTerm": "Epstein-Barr Early D Antigen IgG Antibody Measurement", "submissionValue": "EBEDIGAB", "synonyms": ["Epstein-Barr Early D Antigen IgG Ab"]}, {"conceptId": "C106518", "definition": "A measurement of the Epstein-Barr nuclear antigen 1 IgG antibody in a biological specimen.", "preferredTerm": "Epstein-Barr Nuclear Antigen 1 IgG Ab Measurement", "submissionValue": "EBN1IGAB", "synonyms": ["Epstein-Barr Nuclear Antigen 1 IgG Ab"]}, {"conceptId": "C96603", "definition": "A measurement of the Epstein-Barr nuclear antibody in a biological specimen.", "preferredTerm": "Epstein-Barr Nuclear Antibody Measurement", "submissionValue": "EBNAB", "synonyms": ["Epstein-Barr Nuclear Antibody", "Epstein-Barr Nuclear Antigen Antibody"]}, {"conceptId": "C96604", "definition": "A measurement of the Epstein-Barr nuclear antigen in a biological specimen.", "preferredTerm": "Epstein-Barr Nuclear Antigen Measurement", "submissionValue": "EBNAG", "synonyms": ["Epstein-Barr Nuclear Antigen"]}, {"conceptId": "C106519", "definition": "An assessment of Epstein-Barr virus infection based on a panel of EBV antigen antibody tests.", "preferredTerm": "Epstein-Barr Virus Profile Interpretation", "submissionValue": "EBVINTP", "synonyms": ["EBV Profile Interpretation", "Epstein-Barr Virus Antibody Profile", "Epstein-Barr Virus Panel", "Epstein-Barr Virus Profile Interpretation"]}, {"conceptId": "C98721", "definition": "A measurement of the Epstein-Barr virus viral load in a biological specimen.", "preferredTerm": "Epstein-Barr Virus Viral Load Measurement", "submissionValue": "EBVVLD", "synonyms": ["EBV Viral Load"]}, {"conceptId": "C96598", "definition": "A measurement of the eccentrocytes (erythrocytes in which the hemoglobin is localized to a particular portion of the cell, noticeable as localized staining) in a biological specimen.", "preferredTerm": "Eccentrocyte Count", "submissionValue": "ECCENTCY", "synonyms": ["Eccentrocytes"]}, {"conceptId": "C100422", "definition": "A measurement of the activity of thrombin inhibitors in a biological specimen based on the generation of meizothrombin.", "preferredTerm": "Ecarin Clotting Time Measurement", "submissionValue": "ECT", "synonyms": ["Ecarin Clotting Time"]}, {"conceptId": "C100440", "definition": "A measurement of the volume of serum or plasma that would be cleared of Ethylenediamine tetraacetic acid (EDTA) through its excretion for a specified unit of time.", "preferredTerm": "EDTA Clearance", "submissionValue": "EDTACLR", "synonyms": ["EDTA Clearance"]}, {"conceptId": "C82009", "definition": "A measurement of the epidermal growth factor in a biological specimen.", "preferredTerm": "Epidermal Growth Factor Measurement", "submissionValue": "EGF", "synonyms": ["Epidermal Growth Factor"]}, {"conceptId": "C112273", "definition": "A measurement of the cells with positive expression of EGFR in a biological specimen.", "preferredTerm": "Epidermal Growth Factor Receptor Measurement", "submissionValue": "EGFR", "synonyms": ["ERBB1", "Epidermal Growth Factor Receptor", "HER1"]}, {"conceptId": "C82028", "definition": "A measurement of the pancreatic elastase 1 in a biological specimen.", "preferredTerm": "Pancreatic Elastase Measurement", "submissionValue": "ELA1", "synonyms": ["Pancreatic Elastase 1"]}, {"conceptId": "C82029", "definition": "A measurement of the polymorphonuclear pancreatic elastase 1 in a biological specimen.", "preferredTerm": "Polymorphonuclear Pancreatic Elastase Measurement", "submissionValue": "ELA1PMN", "synonyms": ["Pancreatic Elastase 1, Polymorphonuclear"]}, {"conceptId": "C82026", "definition": "A measurement of the neutrophil elastase in a biological specimen.", "preferredTerm": "Neutrophil Elastase Measurement", "submissionValue": "ELA2", "synonyms": ["Neutrophil Elastase"]}, {"conceptId": "C82027", "definition": "A measurement of the polymorphonuclear neutrophil elastase in a biological specimen.", "preferredTerm": "Polymorphonuclear Neutrophil Elastase Measurement", "submissionValue": "ELA2PMN", "synonyms": ["Neutrophil Elastase, Polymorphonuclear"]}, {"conceptId": "C64549", "definition": "A measurement of the elliptically shaped erythrocytes in a biological specimen.", "preferredTerm": "Elliptocyte Count", "submissionValue": "ELLIPCY", "synonyms": ["Elliptocytes", "Ovalocytes"]}, {"conceptId": "C82010", "definition": "A measurement of the epithelial neutrophil-activating peptide in a biological specimen.", "preferredTerm": "Epithelial Neutrophil-Activating Peptide 78 Measurement", "submissionValue": "ENA78", "synonyms": ["Epith Neutrophil-Activating Peptide 78"]}, {"conceptId": "C92270", "definition": "A measurement of the extractable nuclear antigen antibody in a biological specimen.", "preferredTerm": "Extractable Nuclear Antigen Antibody Measurement", "submissionValue": "ENAAB", "synonyms": ["Anti-ENA", "Extractable Nuclear Antigen Antibody"]}, {"conceptId": "C82008", "definition": "A measurement of the endothelin-1 in a biological specimen.", "preferredTerm": "Endothelin-1 Measurement", "submissionValue": "ENDOTH1", "synonyms": ["Endothelin-1"]}, {"conceptId": "C82011", "definition": "A measurement of the extracellular newly identified RAGE (receptor for advanced glycation end products) binding protein in a biological specimen.", "preferredTerm": "Extracell Newly Ident RAGE Bind Protein Measurement", "submissionValue": "ENRAGE", "synonyms": ["Extracell Newly Ident RAGE Bind Protein", "S100 Calcium Binding Protein A12"]}, {"conceptId": "C64550", "definition": "A measurement of the eosinophils in a biological specimen.", "preferredTerm": "Eosinophil Count", "submissionValue": "EOS", "synonyms": ["Eosinophils"]}, {"conceptId": "C114216", "definition": "A measurement of the banded eosinophils in a biological specimen.", "preferredTerm": "Eosinophil Band Form Count", "submissionValue": "EOSB", "synonyms": ["Eosinophils Band Form"]}, {"conceptId": "C114217", "definition": "A relative measurement (ratio or percentage) of the banded eosinophils to leukocytes in a biological specimen.", "preferredTerm": "Eosinophil Band Form to Leukocyte Ratio", "submissionValue": "EOSBLE", "synonyms": ["Eosinophils Band Form/Leukocytes"]}, {"conceptId": "C98720", "definition": "A relative measurement (ratio or percentage) of the eosinophils to total cells in a biological specimen (for example a bone marrow specimen).", "preferredTerm": "Eosinophils to Total Cell Ratio Measurement", "submissionValue": "EOSCE", "synonyms": ["Eosinophils/Total Cells"]}, {"conceptId": "C96673", "definition": "A measurement of the immature eosinophils in a biological specimen.", "preferredTerm": "Immature Eosinophil Count", "submissionValue": "EOSIM", "synonyms": ["Immature Eosinophils"]}, {"conceptId": "C96674", "definition": "A relative measurement (ratio or percentage) of immature eosinophils to total leukocytes in a biological specimen.", "preferredTerm": "Immature Eosinophil to Leukocyte Ratio Measurement", "submissionValue": "EOSIMLE", "synonyms": ["Immature Eosinophils/Leukocytes"]}, {"conceptId": "C64604", "definition": "A relative measurement (ratio or percentage) of the eosinophils to leukocytes in a biological specimen.", "preferredTerm": "Eosinophil to Leukocyte Ratio", "submissionValue": "EOSLE", "synonyms": ["Eosinophils/Leukocytes"]}, {"conceptId": "C84819", "definition": "A measurement of the eosinphilic metamyelocytes in a biological specimen.", "preferredTerm": "Eosinophilic Metamyelocyte Count", "submissionValue": "EOSMM", "synonyms": ["Eosinophilic Metamyelocytes"]}, {"conceptId": "C84821", "definition": "A measurement of the eosinophilic myelocytes in a biological specimen.", "preferredTerm": "Eosinophilic Myelocyte Count", "submissionValue": "EOSMYL", "synonyms": ["Eosinophilic Myelocytes"]}, {"conceptId": "C81952", "definition": "A measurement of the eotaxin-1 in a biological specimen.", "preferredTerm": "Eotaxin-1 Measurement", "submissionValue": "EOTAXIN1", "synonyms": ["Chemokine Ligand 11", "Eotaxin-1"]}, {"conceptId": "C81953", "definition": "A measurement of the eotaxin-2 in a biological specimen.", "preferredTerm": "Eotaxin-2 Measurement", "submissionValue": "EOTAXIN2", "synonyms": ["Chemokine Ligand 24", "Eotaxin-2"]}, {"conceptId": "C81954", "definition": "A measurement of the eotaxin-3 in a biological specimen.", "preferredTerm": "Eotaxin-3 Measurement", "submissionValue": "EOTAXIN3", "synonyms": ["CCL26", "Chemokine (C-C Motif) Ligand 26", "Chemokine Ligand 26", "Eotaxin-3"]}, {"conceptId": "C64605", "definition": "A measurement of the epithelial cells in a biological specimen.", "preferredTerm": "Epithelial Cell Count", "submissionValue": "EPIC", "synonyms": ["Epithelial Cells"]}, {"conceptId": "C79445", "definition": "A measurement of the epinephrine hormone in a biological specimen.", "preferredTerm": "Epinephrine Measurement", "submissionValue": "EPIN", "synonyms": ["Adrenaline", "Epinephrine"]}, {"conceptId": "C74698", "definition": "A measurement of the round epithelial cells present in a biological specimen.", "preferredTerm": "Round Epithelial Cell Count", "submissionValue": "EPIROCE", "synonyms": ["Round Epithelial Cells"]}, {"conceptId": "C74773", "definition": "A measurement of the squamous epithelial cells present in a biological specimen.", "preferredTerm": "Squamous Epithelial Cell Count", "submissionValue": "EPISQCE", "synonyms": ["Squamous Epithelial Cells"]}, {"conceptId": "C74774", "definition": "A measurement of the squamous transitional epithelial cells present in a biological specimen.", "preferredTerm": "Squamous Transitional Epithelial Cell Count", "submissionValue": "EPISQTCE", "synonyms": ["Epithelial Cells", "Squamous Transitional Epithelial Cells"]}, {"conceptId": "C92251", "definition": "A measurement of the transitional epithelial cells present in a biological specimen.", "preferredTerm": "Transitional Epithelial Cells Measurement", "submissionValue": "EPITCE", "synonyms": ["Transitional Epithelial Cells"]}, {"conceptId": "C74775", "definition": "A measurement of the tubular epithelial cells present in a biological specimen.", "preferredTerm": "Tubular Epithelial Cell Count", "submissionValue": "EPITUCE", "synonyms": ["Renal Tubular Epithelial Cells", "Tubular Epithelial Cells"]}, {"conceptId": "C74855", "definition": "A measurement of the erythropoietin hormone in a biological specimen.", "preferredTerm": "Erythropoietin Measurement", "submissionValue": "EPO", "synonyms": ["Erythropoietin", "Hematopoietin"]}, {"conceptId": "C119273", "definition": "A measurement of the soluble E-Selectin activity in a biological specimen.", "preferredTerm": "Soluble E-Selectin Measurement", "submissionValue": "ESELS", "synonyms": ["Soluble E-Selectin", "sE-selectin"]}, {"conceptId": "C74611", "definition": "The distance (e.g. millimeters) that red blood cells settle in unclotted blood over a specified unit of time (e.g. one hour).", "preferredTerm": "Erythrocyte Sedimentation Rate Measurement", "submissionValue": "ESR", "synonyms": ["Biernacki Reaction", "Erythrocyte Sedimentation Rate"]}, {"conceptId": "C112274", "definition": "A measurement of estrogen receptor protein in a biological specimen.", "preferredTerm": "Estrogen Receptor Measurement", "submissionValue": "ESTRCPT", "synonyms": ["ER", "ESR", "Estrogen Receptor", "Oestrogen Receptor"]}, {"conceptId": "C74782", "definition": "A measurement of the estradiol in a biological specimen.", "preferredTerm": "Estradiol Measurement", "submissionValue": "ESTRDIOL", "synonyms": ["Estradiol", "Oestradiol"]}, {"conceptId": "C74856", "definition": "A measurement of the estriol hormone in a biological specimen.", "preferredTerm": "Estriol Measurement", "submissionValue": "ESTRIOL", "synonyms": ["Estriol", "Oestriol"]}, {"conceptId": "C81963", "definition": "A measurement of the free estriol in a biological specimen.", "preferredTerm": "Free Estriol Measurement", "submissionValue": "ESTRIOLF", "synonyms": ["Estriol, Free"]}, {"conceptId": "C74857", "definition": "A measurement of the estrone hormone in a biological specimen.", "preferredTerm": "Estrone Measurement", "submissionValue": "ESTRONE", "synonyms": ["Estrone", "Oestrone"]}, {"conceptId": "C74693", "definition": "A measurement of the ethanol present in a biological specimen.", "preferredTerm": "Ethanol Measurement", "submissionValue": "ETHANOL", "synonyms": ["Alcohol", "Ethanol"]}, {"conceptId": "C102266", "definition": "A measurement of the total concentration of thrombin generated in the presence of a substrate in a plasma or blood sample.", "preferredTerm": "Endogenous Thrombin Potential Measurement", "submissionValue": "ETP", "synonyms": ["Endogenous Thrombin Potential"]}, {"conceptId": "C102263", "definition": "A measurement of the area under the thrombin generation curve.", "preferredTerm": "Endogenous Thrombin Potential Area Under Curve Measurement", "submissionValue": "ETPAUC", "synonyms": ["ETP Area Under Curve", "Endogenous Thrombin Potential Area Under Curve"]}, {"conceptId": "C102264", "definition": "A measurement of time from the start of the thrombin generation test to the point where a predetermined amount of thrombin is generated.", "preferredTerm": "Endogenous Thrombin Potential Lag Time Measurement", "submissionValue": "ETPLT", "synonyms": ["ETP Lag Time", "Endogenous Thrombin Potential Lag Time"]}, {"conceptId": "C102265", "definition": "A relative measurement (ratio or percentage) of time from the start of the thrombin generation test to the point where a predetermined amount of thrombin is generated.", "preferredTerm": "Endogenous Thrombin Potential Lag Time Relative Measurement", "submissionValue": "ETPLTR", "synonyms": ["ETP Lag Time Relative", "Endogenous Thrombin Potential Lag Time Relative"]}, {"conceptId": "C102267", "definition": "A measurement of the maximum concentration of thrombin generated during a thrombin generation test.", "preferredTerm": "Endogenous Thrombin Potential Peak Height Measurement", "submissionValue": "ETPPH", "synonyms": ["ETP Peak Height", "Endogenous Thrombin Potential Peak Height"]}, {"conceptId": "C102268", "definition": "A relative (ratio or percentage) of the maximum concentration of thrombin generated during a thrombin generation test.", "preferredTerm": "Endogenous Thrombin Potential Peak Height Relative Measurement", "submissionValue": "ETPPHR", "synonyms": ["ETP Peak Height Relative", "Endogenous Thrombin Potential Peak Height Relative"]}, {"conceptId": "C102269", "definition": "A measurement of the time it takes to generate the maximum concentration of thrombin.", "preferredTerm": "Endogenous Thrombin Potential Time to Peak Measurement", "submissionValue": "ETPTP", "synonyms": ["ETP Time to Peak", "Endogenous Thrombin Potential Time to Peak"]}, {"conceptId": "C102270", "definition": "A relative (ratio or percentage) measurement of the time it takes to generate the maximum concentration of thrombin.", "preferredTerm": "Endogenous Thrombin Potential Time to Peak Relative Measurement", "submissionValue": "ETPTPR", "synonyms": ["ETP Time to Peak Relative", "Endogenous Thrombin Potential Time to Peak Relative"]}, {"conceptId": "C82012", "definition": "A measurement of the fatty acid binding protein 1 in a biological specimen.", "preferredTerm": "Fatty Acid Binding Protein 1 Measurement", "submissionValue": "FABP1", "synonyms": ["Fatty Acid Binding Protein 1"]}, {"conceptId": "C106521", "definition": "A measurement of the fatty acid binding protein 3 in a biological specimen.", "preferredTerm": "Fatty Acid Binding Protein 3 Measurement", "submissionValue": "FABP3", "synonyms": ["Fatty Acid Binding Protein 3"]}, {"conceptId": "C96626", "definition": "A measurement of the Factor II in a biological specimen.", "preferredTerm": "Prothrombin Measurement", "submissionValue": "FACTII", "synonyms": ["Factor II", "Prothrombin"]}, {"conceptId": "C81959", "definition": "A measurement of the factor III in a biological specimen.", "preferredTerm": "Factor III Measurement", "submissionValue": "FACTIII", "synonyms": ["Factor III", "Tissue Factor, CD142"]}, {"conceptId": "C98725", "definition": "A measurement of the factor IX in a biological specimen.", "preferredTerm": "Factor IX Measurement", "submissionValue": "FACTIX", "synonyms": ["Christmas Factor", "Factor IX"]}, {"conceptId": "C103395", "definition": "A measurement of the biological activity of factor IX in a biological specimen.", "preferredTerm": "Factor IX Activity Measurement", "submissionValue": "FACTIXA", "synonyms": ["Christmas Factor Activity"]}, {"conceptId": "C98726", "definition": "A measurement of the factor V in a biological specimen.", "preferredTerm": "Factor V Measurement", "submissionValue": "FACTV", "synonyms": ["Factor V", "Labile Factor"]}, {"conceptId": "C103396", "definition": "A measurement of the biological activity of factor V in a biological specimen.", "preferredTerm": "Factor V Activity Measurement", "submissionValue": "FACTVA", "synonyms": ["Labile Factor Activity"]}, {"conceptId": "C81960", "definition": "A measurement of the factor VII in a biological specimen.", "preferredTerm": "Factor VII Measurement", "submissionValue": "FACTVII", "synonyms": ["Factor VII", "Proconvertin", "Stable Factor"]}, {"conceptId": "C103397", "definition": "A measurement of the biological activity of factor VII in a biological specimen.", "preferredTerm": "Factor VII Activity Measurement", "submissionValue": "FACTVIIA", "synonyms": ["Proconvertin Activity", "Stable Factor Activity"]}, {"conceptId": "C81961", "definition": "A measurement of the factor VIII in a biological specimen.", "preferredTerm": "Factor VIII Measurement", "submissionValue": "FACTVIII", "synonyms": ["Anti-hemophilic Factor", "Factor VIII"]}, {"conceptId": "C102271", "definition": "A measurement of the Factor V Leiden in a biological specimen.", "preferredTerm": "Factor V Leiden Measurement", "submissionValue": "FACTVL", "synonyms": ["Factor V Leiden"]}, {"conceptId": "C98799", "definition": "A measurement of the von Willebrand factor in a biological specimen.", "preferredTerm": "von Willebrand Factor Measurement", "submissionValue": "FACTVW", "synonyms": ["von Willebrand Factor", "von Willebrand Factor Antigen"]}, {"conceptId": "C122117", "definition": "A measurement of the biological activity of von Willebrand factor in a biological specimen.", "preferredTerm": "von Willebrand Factor Activity Measurement", "submissionValue": "FACTVWA", "synonyms": ["von Willebrand Factor Activity"]}, {"conceptId": "C98727", "definition": "A measurement of the factor X in a biological specimen.", "preferredTerm": "Factor X Measurement", "submissionValue": "FACTX", "synonyms": ["Factor X"]}, {"conceptId": "C122118", "definition": "A measurement of the factor X activity in a biological specimen.", "preferredTerm": "Factor X Activity Measurement", "submissionValue": "FACTXA", "synonyms": ["Factor X Activity"]}, {"conceptId": "C112277", "definition": "A measurement of the factor XIII in a biological specimen.", "preferredTerm": "Factor XIII Measurement", "submissionValue": "FACTXIII", "synonyms": ["Factor XIII", "Fibrin Stablizing Factor"]}, {"conceptId": "C102272", "definition": "A measurement of the factor XIV in a biological specimen.", "preferredTerm": "Factor XIV Measurement", "submissionValue": "FACTXIV", "synonyms": ["Autoprothrombin IIA", "Factor XIV", "Protein C", "Protein C Antigen"]}, {"conceptId": "C105442", "definition": "A measurement of the factor XIV activity in a biological specimen.", "preferredTerm": "Factor XIV Activity Measurement", "submissionValue": "FACTXIVA", "synonyms": ["Factor XIV Activity", "Protein C Activity", "Protein C Function"]}, {"conceptId": "C124341", "definition": "A measurement of the androgen status in a biological specimen. This is calculated by a mathematical formula that takes into account the total testosterone level, sex hormone binding globulin, and a constant.", "preferredTerm": "Free Androgen Index", "submissionValue": "FAI", "synonyms": ["Free Androgen Index"]}, {"conceptId": "C96648", "definition": "A measurement of the fat in a biological specimen.", "preferredTerm": "Fat Measurement", "submissionValue": "FAT", "synonyms": ["Fat"]}, {"conceptId": "C80200", "definition": "A measurement of the total non-esterified fatty acids in a biological specimen.", "preferredTerm": "Non-esterified Fatty Acids Measurement", "submissionValue": "FATACFR", "synonyms": ["Free Fatty Acid", "Non-Esterified Fatty Acid, Free"]}, {"conceptId": "C80206", "definition": "A measurement of the saturated non-esterified fatty acids in a biological specimen.", "preferredTerm": "Saturated Non-esterified Fatty Acids Measurement", "submissionValue": "FATACFRS", "synonyms": ["Free Fatty Acid, Saturated", "Non-esterified Fatty Acid, Saturated"]}, {"conceptId": "C80209", "definition": "A measurement of the unsaturated non-esterified fatty acids in a biological specimen.", "preferredTerm": "Unsaturated Non-esterified Fatty Acids Measurement", "submissionValue": "FATACFRU", "synonyms": ["Free Fatty Acid, Unsaturated", "Non-esterified Fatty Acid, Unsaturated"]}, {"conceptId": "C81947", "definition": "A measurement of the oval-shaped fat bodies, usually renal proximal tubular cells with lipid aggregates in the cytoplasm, in a biological specimen.", "preferredTerm": "Oval Fat Body Measurement", "submissionValue": "FATBODOV", "synonyms": ["Fat Bodies, Oval"]}, {"conceptId": "C98728", "definition": "A measurement of the triglyceride aggregates within a biological specimen.", "preferredTerm": "Fat Droplet Measurement", "submissionValue": "FATDROP", "synonyms": ["Fat Droplet"]}, {"conceptId": "C105443", "definition": "A biomarker test that measures liver pathology through the assessment of a six-parameter blood test (for Alpha-2-macroglobulin, Haptoglobin, Apolipoprotein A1, Gamma-glutamyl transpeptidase (GGT), Total bilirubin, and Alanine aminotransferase (ALT)), taking into account the age and gender of the patient.", "preferredTerm": "FibroTest Score Measurement", "submissionValue": "FBRTST", "synonyms": ["FibroSURE Score", "FibroTest Score"]}, {"conceptId": "C103398", "definition": "A measurement of the biological activity of factor VIIa in a biological specimen.", "preferredTerm": "Factor VIIa Activity Measurement", "submissionValue": "FCTVIIAA", "synonyms": ["Factor VIIa Activity"]}, {"conceptId": "C103399", "definition": "A measurement of the biological activity of factor VIII in a biological specimen.", "preferredTerm": "Factor VIII Activity Measurement", "submissionValue": "FCTVIIIA", "synonyms": ["Anti-hemophilic Factor Activity"]}, {"conceptId": "C82013", "definition": "A measurement of the fibrin degradation products in a biological specimen.", "preferredTerm": "Fibrin Degradation Products Measurement", "submissionValue": "FDP", "synonyms": ["Fibrin Degradation Products"]}, {"conceptId": "C114219", "definition": "A measurement of the fractional excretion of calcium that is computed based upon the concentrations of calcium and creatinine in both blood and urine.", "preferredTerm": "Fractional Excretion of Calcium", "submissionValue": "FECA", "synonyms": ["Fractional Calcium Excretion"]}, {"conceptId": "C114220", "definition": "A measurement of the fractional excretion of chloride that is computed based upon the concentrations of chloride and creatinine in both blood and urine.", "preferredTerm": "Fractional Excretion of Chloride", "submissionValue": "FECL", "synonyms": ["Fractional Chloride Excretion"]}, {"conceptId": "C114222", "definition": "A measurement of the fractional excretion of potassium that is computed based upon the concentrations of potassium and creatinine in both blood and urine.", "preferredTerm": "Fractional Excretion of Potassium", "submissionValue": "FEK", "synonyms": ["Fractional Potassium Excretion"]}, {"conceptId": "C122119", "definition": "A measurement of the fractional excretion of magnesium that is computed based upon the concentrations of magnesium and creatinine in both blood and urine.", "preferredTerm": "Fractional Excretion of Magnesium", "submissionValue": "FEMG", "synonyms": ["Fractional Magnesium Excretion"]}, {"conceptId": "C107435", "definition": "A measurement of the fractional excretion of sodium that is computed based upon the concentrations of sodium and creatinine in both blood and urine.", "preferredTerm": "Fractional Excretion of Sodium", "submissionValue": "FENA", "synonyms": ["Fractional Sodium Excretion"]}, {"conceptId": "C114221", "definition": "A measurement of the fractional excretion of phosphorus that is computed based upon the concentrations of phosphorus and creatinine in both blood and urine.", "preferredTerm": "Fractional Excretion of Phosphate", "submissionValue": "FEPI", "synonyms": ["Fractional Inorganic Phosphate Excretion", "Fractional Phosphorus Excretion"]}, {"conceptId": "C74737", "definition": "A measurement of the ferritin in a biological specimen.", "preferredTerm": "Ferritin Measurement", "submissionValue": "FERRITIN", "synonyms": ["Ferritin"]}, {"conceptId": "C112280", "definition": "A measurement of the fibroblast growth factor 21 in a biological specimen.", "preferredTerm": "Fibroblast Growth Factor 21 Measurement", "submissionValue": "FGF21", "synonyms": ["FGF 21", "Fibroblast Growth Factor 21"]}, {"conceptId": "C96650", "definition": "A measurement of the fibroblast growth factor 23 in a biological specimen.", "preferredTerm": "Fibroblast Growth Factor 23 Measurement", "submissionValue": "FGF23", "synonyms": ["Fibroblast Growth Factor 23", "Phosphatonin"]}, {"conceptId": "C82014", "definition": "A measurement of the basic form of fibroblast growth factor in a biological specimen.", "preferredTerm": "Fibroblast Growth Factor Basic Form Measurement", "submissionValue": "FGFBF", "synonyms": ["FGF2", "Fibroblast Growth Factor Basic Form"]}, {"conceptId": "C64606", "definition": "A measurement of the fibrinogen in a biological specimen.", "preferredTerm": "Fibrinogen Measurement", "submissionValue": "FIBRINO", "synonyms": ["Fibrinogen"]}, {"conceptId": "C122120", "definition": "A measurement of the fluoride in a biological specimen.", "preferredTerm": "Fluoride Measurement", "submissionValue": "FLUORIDE", "synonyms": ["Fluoride"]}, {"conceptId": "C74678", "definition": "A measurement of the fructosamine in a biological specimen.", "preferredTerm": "Fructosamine Measurement", "submissionValue": "FRUCT", "synonyms": ["Fructosamine", "Glycated Serum Protein"]}, {"conceptId": "C74783", "definition": "A measurement of the follicle stimulating hormone (FSH) in a biological specimen.", "preferredTerm": "Follicle Stimulating Hormone Measurement", "submissionValue": "FSH", "synonyms": ["Follicle Stimulating Hormone"]}, {"conceptId": "C80184", "definition": "A measurement of the glucose-6-phosphate dehydrogenase in a biological specimen.", "preferredTerm": "Glucose-6-Phosphate Dehydrogenase Measurement", "submissionValue": "G6PD", "synonyms": ["Glucose-6-Phosphate Dehydrogenase"]}, {"conceptId": "C82015", "definition": "A measurement of the glutamic acid decarboxylase 1 in a biological specimen.", "preferredTerm": "Glutamic Acid Decarboxylase 1 Measurement", "submissionValue": "GAD1", "synonyms": ["Glutamic Acid Decarboxylase 1", "Glutamic Acid Decarboxylase 67"]}, {"conceptId": "C82016", "definition": "A measurement of the glutamic acid decarboxylase 2 in a biological specimen.", "preferredTerm": "Glutamic Acid Decarboxylase 2 Measurement", "submissionValue": "GAD2", "synonyms": ["Glutamic Acid Decarboxylase 2", "Glutamic Acid Decarboxylase 65"]}, {"conceptId": "C82017", "definition": "A measurement of the glutamic acid decarboxylase 2 antibody in a biological specimen.", "preferredTerm": "Glutamic Acid Decarboxylase 2 Antibody Measurement", "submissionValue": "GAD2AB", "synonyms": ["Glutamic Acid Decarboxylase 2 Antibody", "Glutamic Acid Decarboxylase 65 Antibody"]}, {"conceptId": "C96653", "definition": "A measurement of the glutamic acid decarboxylase antibody in a biological specimen.", "preferredTerm": "Glutamic Acid Decarboxylase Antibody Measurement", "submissionValue": "GADAB", "synonyms": ["GAD Antibody", "Glutamic Acid Decarboxylase Antibody"]}, {"conceptId": "C80182", "definition": "A measurement of the galanin in a biological specimen.", "preferredTerm": "Galanin Measurement", "submissionValue": "GALANIN", "synonyms": ["Galanin"]}, {"conceptId": "C74858", "definition": "A measurement of the gastrin hormone in a biological specimen.", "preferredTerm": "Gastrin Measurement", "submissionValue": "GASTRIN", "synonyms": ["Gastrin"]}, {"conceptId": "C116211", "definition": "A measurement of the gamma tocopherol in a biological specimen.", "preferredTerm": "Gamma Tocopherol Measurement", "submissionValue": "GATCPHRL", "synonyms": ["Gamma Tocopherol"]}, {"conceptId": "C82018", "definition": "A measurement of the granulocyte colony stimulating factor in a biological specimen.", "preferredTerm": "Granulocyte Colony Stimulating Factor Measurement", "submissionValue": "GCSF", "synonyms": ["Granulocyte Colony Stimulating Factor"]}, {"conceptId": "C124342", "definition": "A liver function test that measures galactose elimination capacity in a biological specimen.", "preferredTerm": "Galactose Elimination Capacity", "submissionValue": "GEC", "synonyms": ["Galactose Elimination Capacity"]}, {"conceptId": "C90505", "definition": "A kidney function test that measures the fluid volume that is filtered from the kidney glomeruli to the Bowman's capsule per unit of time.", "preferredTerm": "Glomerular Filtration Rate", "submissionValue": "GFR", "synonyms": ["Glomerular Filtration Rate"]}, {"conceptId": "C98734", "definition": "A measurement of the glomerular filtration rate adjusted for body size.", "preferredTerm": "Glomerular Filtration Rate Adjusted for BSA", "submissionValue": "GFRBSA", "synonyms": ["Glomerular Filtration Rate Adj for BSA"]}, {"conceptId": "C100450", "definition": "A measurement of the glomerular filtration rate (GFR) based on the clearance of beta-2 microglobulin after adjusting it for the body surface area.", "preferredTerm": "Glomerular Filtration Rate from B-2 Microglobulin Adjusted for BSA Measurement", "submissionValue": "GFRBSB2M", "synonyms": ["GFR from B-2 Microglobulin Adj for BSA"]}, {"conceptId": "C100449", "definition": "A measurement of the glomerular filtration rate (GFR) based on the clearance of beta-trace protein after adjusting it for the body surface area.", "preferredTerm": "Glomerular Filtration Rate from Beta-Trace Protein Adjusted for BSA Measurement", "submissionValue": "GFRBSBTP", "synonyms": ["GFR from Beta-Trace Protein Adj for BSA"]}, {"conceptId": "C98735", "definition": "An estimation of the glomerular filtration rate adjusted for body size based on creatinine.", "preferredTerm": "Glomerular Filtration Rate from Creatinine Adjusted for BSA", "submissionValue": "GFRBSCRT", "synonyms": ["GFR from Creatinine Adjusted for BSA"]}, {"conceptId": "C98736", "definition": "An estimation of the glomerular filtration rate adjusted for body size based on cystatin C.", "preferredTerm": "Glomerular Filtration Rate from Cystatin C Adjusted for BSA", "submissionValue": "GFRBSCYC", "synonyms": ["GFR from Cystatin C Adjusted for BSA"]}, {"conceptId": "C110935", "definition": "A kidney function test that estimates the fluid volume that is filtered from the kidney glomeruli to the Bowman's capsule per unit of time.", "preferredTerm": "Estimated Glomerular Filtration Rate", "submissionValue": "GFRE", "synonyms": ["Glomerular Filtration Rate, Estimated"]}, {"conceptId": "C64847", "definition": "A measurement of the gamma glutamyl transferase in a biological specimen.", "preferredTerm": "Gamma Glutamyl Transpeptidase Measurement", "submissionValue": "GGT", "synonyms": ["Gamma Glutamyl Transferase"]}, {"conceptId": "C79446", "definition": "A relative measurement (ratio or percentage) of the gamma glutamyl transferase to creatinine in a biological specimen.", "preferredTerm": "Gamma Glutamyl Transferase to Creatinine Ratio Measurement", "submissionValue": "GGTCREAT", "synonyms": ["Gamma Glutamyl Transferase/Creatinine"]}, {"conceptId": "C112286", "definition": "A measurement of total ghrelin in a biological specimen.", "preferredTerm": "Ghrelin Measurement", "submissionValue": "GHRELIN", "synonyms": ["Ghrelin", "Growth Hormone Secretagogue Receptor Ligand", "Motilin-related Peptide", "Total Ghrelin"]}, {"conceptId": "C112219", "definition": "A measurement of active ghrelin in a biological specimen.", "preferredTerm": "Active Ghrelin Measurement", "submissionValue": "GHRELINA", "synonyms": ["Active Ghrelin", "Ghrelin"]}, {"conceptId": "C106537", "definition": "A measurement of the intact (containing amino acids 1-42) glucose-dependent insulinotropic peptide in a biological specimen.", "preferredTerm": "Intact Glucose-dependent Insulinotropic Peptide Measurement", "submissionValue": "GIPI", "synonyms": ["Glucose-dep Insulinotropic Pep, Intact", "Intact GIP", "Intact Gastric Inhibitory Polypeptide", "Intact Glucose-dependent Insulinotropic Peptide"]}, {"conceptId": "C79448", "definition": "A measurement of the glutamate dehydrogenase in a biological specimen.", "preferredTerm": "Glutamate Dehydrogenase Measurement", "submissionValue": "GLDH", "synonyms": ["Glutamate Dehydrogenase"]}, {"conceptId": "C122121", "definition": "A measurement of the glutamine in a biological specimen.", "preferredTerm": "Glutamine Measurement", "submissionValue": "GLN", "synonyms": ["Glutamine"]}, {"conceptId": "C92252", "definition": "A measurement of the proteins contributing to the alpha 1 fraction in a biological specimen.", "preferredTerm": "Alpha-1 Globulin Measurement", "submissionValue": "GLOBA1", "synonyms": ["A1-Globulin", "Alpha-1 Globulin"]}, {"conceptId": "C92253", "definition": "A relative measurement (ratio or percentage) of alpha-1-fraction proteins to total proteins in a biological specimen.", "preferredTerm": "Alpha-1 Globulin to Total Protein Ratio Measurement", "submissionValue": "GLOBA1PT", "synonyms": ["Alpha-1 Globulin/Total Protein"]}, {"conceptId": "C92254", "definition": "A measurement of the proteins contributing to the alpha 2 fraction in a biological specimen.", "preferredTerm": "Alpha-2 Globulin Measurement", "submissionValue": "GLOBA2", "synonyms": ["A2-Globulin", "Alpha-2 Globulin"]}, {"conceptId": "C92255", "definition": "A relative measurement (ratio or percentage) of alpha-2-fraction proteins to total proteins in a biological specimen.", "preferredTerm": "Alpha-2 Globulin to Total Protein Ratio Measurement", "submissionValue": "GLOBA2PT", "synonyms": ["Alpha-2 Globulin/Total Protein"]}, {"conceptId": "C92256", "definition": "A measurement of the proteins contributing to the beta fraction in a biological specimen.", "preferredTerm": "Beta Globulin Measurement", "submissionValue": "GLOBB", "synonyms": ["Beta Globulin"]}, {"conceptId": "C119274", "definition": "A measurement of the beta-1 globulin in a biological specimen.", "preferredTerm": "Beta-1 Globulin Measurement", "submissionValue": "GLOBB1", "synonyms": ["Beta-1 Globulin"]}, {"conceptId": "C119275", "definition": "A relative measurement (ratio or percentage) of beta-1-fraction proteins to total proteins in a biological specimen.", "preferredTerm": "Beta-1 Globulin to Total Protein Ratio Measurement", "submissionValue": "GLOBB1PT", "synonyms": ["Beta-1 Globulin/Total Protein"]}, {"conceptId": "C119276", "definition": "A measurement of the beta-2 globulin in a biological specimen.", "preferredTerm": "Beta-2 Globulin Measurement", "submissionValue": "GLOBB2", "synonyms": ["Beta-2 Globulin"]}, {"conceptId": "C119277", "definition": "A relative measurement (ratio or percentage) of beta-2-fraction proteins to total proteins in a biological specimen.", "preferredTerm": "Beta-2 Globulin to Total Protein Ratio Measurement", "submissionValue": "GLOBB2PT", "synonyms": ["Beta-2 Globulin/Total Protein"]}, {"conceptId": "C92294", "definition": "A relative measurement (ratio or percentage) of beta fraction proteins to total proteins in a biological specimen.", "preferredTerm": "Beta Globulin to Total Protein Ratio Measurement", "submissionValue": "GLOBBPT", "synonyms": ["Beta Globulin/Total Protein"]}, {"conceptId": "C92257", "definition": "A measurement of the proteins contributing to the gamma fraction in a biological specimen.", "preferredTerm": "Gamma Globulin Measurement", "submissionValue": "GLOBG", "synonyms": ["Gamma Globulin"]}, {"conceptId": "C92295", "definition": "A relative measurement (ratio or percentage) of gamma fraction proteins to total proteins in a biological specimen.", "preferredTerm": "Gamma Globulin to Total Protein Ratio Measurement", "submissionValue": "GLOBGPT", "synonyms": ["Gamma Globulin/Total Protein"]}, {"conceptId": "C74738", "definition": "A measurement of the globulin protein in a biological specimen.", "preferredTerm": "Globulin Protein Measurement", "submissionValue": "GLOBUL", "synonyms": ["Globulin"]}, {"conceptId": "C80183", "definition": "A measurement of the total glucagon-like peptide-1 in a biological specimen.", "preferredTerm": "Glucagon-like Peptide-1 Measurement", "submissionValue": "GLP1", "synonyms": ["Glucagon-Like Peptide-1", "Total Glucagon-Like Peptide-1"]}, {"conceptId": "C80164", "definition": "A measurement of the active form of glucagon-like peptide-1 in a biological specimen.", "preferredTerm": "Active Glucagon-like Peptide-1 Measurement", "submissionValue": "GLP1AC", "synonyms": ["Glucagon-Like Peptide-1, Active Form"]}, {"conceptId": "C105585", "definition": "A measurement of the glucose in a biological specimen.", "preferredTerm": "Glucose Measurement", "submissionValue": "GLUC", "synonyms": ["Glucose"]}, {"conceptId": "C74859", "definition": "A measurement of the glucagon hormone in a biological specimen.", "preferredTerm": "Glucagon Measurement", "submissionValue": "GLUCAGON", "synonyms": ["Glucagon"]}, {"conceptId": "C96652", "definition": "A measurement of the volume of serum or plasma that would be cleared of glucose by excretion of urine for a specified unit of time (e.g. one minute).", "preferredTerm": "Glucose Clearance Measurement", "submissionValue": "GLUCCLR", "synonyms": ["Glucose Clearance"]}, {"conceptId": "C79447", "definition": "A relative measurement (ratio or percentage) of the glucose to creatinine in a biological specimen.", "preferredTerm": "Glucose to Creatinine Ratio Measurement", "submissionValue": "GLUCCRT", "synonyms": ["Glucose/Creatinine"]}, {"conceptId": "C117834", "definition": "A measurement of the amount of glucose being excreted in urine over a defined amount of time (e.g. one hour).", "preferredTerm": "Glucose Urine Excretion Rate", "submissionValue": "GLUCEXR", "synonyms": ["Glucose Excretion Rate"]}, {"conceptId": "C74739", "definition": "A measurement of the glutamate in a biological specimen.", "preferredTerm": "Glutamate Measurement", "submissionValue": "GLUTAM", "synonyms": ["Glutamate", "Glutamic Acid"]}, {"conceptId": "C122122", "definition": "A measurement of the glycine in a biological specimen.", "preferredTerm": "Glycine Measurement", "submissionValue": "GLY", "synonyms": ["Glycine"]}, {"conceptId": "C100448", "definition": "A measurement of the amount of unbound glycerol in a biological specimen.", "preferredTerm": "Free Glycerol Measurement", "submissionValue": "GLYCRLFR", "synonyms": ["Free Glycerin", "Free Glycerol"]}, {"conceptId": "C82019", "definition": "A measurement of the granulocyte macrophage colony stimulating factor in a biological specimen.", "preferredTerm": "Granulocyte Macrophage Colony Stm Factor Measurement", "submissionValue": "GMCSF", "synonyms": ["Granulocyte Macrophage Colony Stm Factor"]}, {"conceptId": "C74860", "definition": "A measurement of the gonadotropin releasing hormone in a biological specimen.", "preferredTerm": "Gonadotropin Releasing Hormone Measurement", "submissionValue": "GNRH", "synonyms": ["Gonadotropin Releasing Hormone", "Luteinising Hormone Releasing Hormone"]}, {"conceptId": "C80186", "definition": "A measurement of the gold in a biological specimen.", "preferredTerm": "Gold Measurement", "submissionValue": "GOLD", "synonyms": ["Gold"]}, {"conceptId": "C96654", "definition": "A measurement of the granulocytes in a biological specimen.", "preferredTerm": "Granulocyte Count", "submissionValue": "GRAN", "synonyms": ["Granulocytes"]}, {"conceptId": "C98866", "definition": "A relative measurement (ratio or percentage) of the granulocytes to total cells in a biological specimen (for example a bone marrow specimen).", "preferredTerm": "Granulocyte to Total Cell Ratio Measurement", "submissionValue": "GRANCE", "synonyms": ["Granulocytes/Total Cells"]}, {"conceptId": "C96675", "definition": "A measurement of the total immature granulocytes in a biological specimen.", "preferredTerm": "Immature Granulocyte Count", "submissionValue": "GRANIM", "synonyms": ["Immature Granulocytes"]}, {"conceptId": "C100445", "definition": "A relative measurement (ratio or percentage) of the immature granulocytes to leukocytes in a biological specimen (for example a bone marrow specimen).", "preferredTerm": "Immature Granulocytes to Leukocytes Ratio Measurement", "submissionValue": "GRANIMLE", "synonyms": ["Immature Granulocytes/Leukocytes"]}, {"conceptId": "C74861", "definition": "A measurement of the growth hormone inhibiting hormone in a biological specimen.", "preferredTerm": "Growth Hormone Inhibiting Hormone Measurement", "submissionValue": "GRWHIH", "synonyms": ["Growth Hormone Inhibiting Hormone", "Somatostatin"]}, {"conceptId": "C74862", "definition": "A measurement of the growth hormone releasing hormone in a biological specimen.", "preferredTerm": "Growth Hormone Releasing Hormone Measurement", "submissionValue": "GRWHRH", "synonyms": ["Growth Hormone Releasing Hormone", "Somatocrinin"]}, {"conceptId": "C80185", "definition": "A measurement of the total glutathione-s-transferase in a biological specimen.", "preferredTerm": "Glutathione-S-Transferase Measurement", "submissionValue": "GST", "synonyms": ["Glutathione S-Transferase, Total"]}, {"conceptId": "C79433", "definition": "A measurement of the alpha form of glutathione S-transferase in a biological specimen.", "preferredTerm": "Alpha Glutathione-S-Transferase Measurement", "submissionValue": "GSTAL", "synonyms": ["Alpha Glutathione-S-Transferase"]}, {"conceptId": "C80166", "definition": "A relative measurement (ratio or percentage) of the alpha glutathione-S-transferase to creatinine in a biological specimen.", "preferredTerm": "Alpha Glutathione-S-Transferase to Creatinine Ratio Measurement", "submissionValue": "GSTALCRT", "synonyms": ["Glutathione S-Transferase, Alpha/Creat"]}, {"conceptId": "C119278", "definition": "A measurement of the amount of Alpha Glutathione-S-Transferase being excreted in urine over a defined period of time (e.g. one hour).", "preferredTerm": "Alpha-GST Excretion Rate", "submissionValue": "GSTALEXR", "synonyms": ["Alpha-GST Excretion Rate"]}, {"conceptId": "C79435", "definition": "A relative measurement (ratio or percentage) of the glutathione S-transferase to creatinine in a biological specimen.", "preferredTerm": "Glutathione-S-Transferase to Creatinine Ratio Measurement", "submissionValue": "GSTCREAT", "synonyms": ["Glutathione-S-Transferase/Creatinine"]}, {"conceptId": "C79457", "definition": "A measurement of the mu form of glutathione S-transferase in a biological specimen.", "preferredTerm": "Mu Glutathione-S-Transferase Measurement", "submissionValue": "GSTMU", "synonyms": ["Mu Glutathione-S-Transferase"]}, {"conceptId": "C79458", "definition": "A relative measurement (ratio or percentage) of the mu gamma glutamyl transpeptidase to creatinine in a biological specimen.", "preferredTerm": "Mu Glutathione-S-Transferase to Creatinine Ratio Measurement", "submissionValue": "GSTMUCRT", "synonyms": ["Mu Glutathione-S-Transferase/Creatinine"]}, {"conceptId": "C80203", "definition": "A measurement of the Pi glutathione-s-transferase in a biological specimen.", "preferredTerm": "Pi Glutathione S-Transferase Measurement", "submissionValue": "GSTPI", "synonyms": ["Glutathione S-Transferase, Pi"]}, {"conceptId": "C119279", "definition": "A measurement of the amount of Pi Glutathione-S-Transferase being excreted in urine over a defined period of time (e.g. one hour).", "preferredTerm": "Pi-GST Excretion Rate", "submissionValue": "GSTPIEXR", "synonyms": ["Pi-GST Excretion Rate"]}, {"conceptId": "C80207", "definition": "A measurement of the theta glutathione-s-transferase in a biological specimen.", "preferredTerm": "Theta Glutathione S-Transferase Measurement", "submissionValue": "GSTTH", "synonyms": ["Glutathione S-Transferase, Theta"]}, {"conceptId": "C80165", "definition": "A measurement of the alpha glucuronidase in a biological specimen.", "preferredTerm": "Alpha Glucuronidase Measurement", "submissionValue": "GUSA", "synonyms": ["Glucuronidase, Alpha"]}, {"conceptId": "C80170", "definition": "A measurement of the beta glucuronidase in a biological specimen.", "preferredTerm": "Beta Glucuronidase Measurement", "submissionValue": "GUSB", "synonyms": ["Glucuronidase, Beta"]}, {"conceptId": "C92534", "definition": "A measurement of the antibody reaction of a biological specimen to the Hepatitis A virus.", "preferredTerm": "Hepatitis A Antibody Measurement", "submissionValue": "HAAB", "synonyms": ["Hepatitis A Virus Antibody"]}, {"conceptId": "C92271", "definition": "A measurement of hepatitis A virus IgM antibody in a biological specimen.", "preferredTerm": "Hepatitis A Virus Antibody IgM Measurement", "submissionValue": "HAIGMAB", "synonyms": ["Hepatitis A Virus IgM Antibody"]}, {"conceptId": "C74604", "definition": "A measurement of the hairy cells (b-cell lymphocytes with hairy projections from the cytoplasm) in a biological specimen.", "preferredTerm": "Hairy Cell Count", "submissionValue": "HAIRYCE", "synonyms": ["Hairy Cells"]}, {"conceptId": "C103405", "definition": "A measurement of the human albumin antibody in a biological specimen.", "preferredTerm": "Human Albumin Antibody Measurement", "submissionValue": "HALBAB", "synonyms": ["Human Albumin Antibody"]}, {"conceptId": "C103406", "definition": "A measurement of the human anti-mouse antibody in a biological specimen.", "preferredTerm": "Human Anti-Mouse Antibody Measurement", "submissionValue": "HAMAB", "synonyms": ["HAMA"]}, {"conceptId": "C74740", "definition": "A measurement of the haptoglobin protein in a biological specimen.", "preferredTerm": "Haptoglobin Protein Measurement", "submissionValue": "HAPTOG", "synonyms": ["Haptoglobin"]}, {"conceptId": "C98740", "definition": "A measurement of the human anti-sheep IgE antibodies in a biological specimen.", "preferredTerm": "Human Anti-Sheep IgE Antibody Measurement", "submissionValue": "HASIGEAB", "synonyms": ["Human Anti-Sheep IgE Antibody"]}, {"conceptId": "C98741", "definition": "A measurement of the human anti-sheep IgG antibodies in a biological specimen.", "preferredTerm": "Human Anti-Sheep IgG Antibody Measurement", "submissionValue": "HASIGGAB", "synonyms": ["Human Anti-Sheep IgG Antibody"]}, {"conceptId": "C98742", "definition": "A measurement of the human anti-sheep IgM antibodies in a biological specimen.", "preferredTerm": "Human Anti-Sheep IgM Antibody Measurement", "submissionValue": "HASIGMAB", "synonyms": ["Human Anti-Sheep IgM Antibody"]}, {"conceptId": "C92541", "definition": "A measurement of the hepatitis A viral load in a biological specimen.", "preferredTerm": "Hepatitis A Viral Load Measurement", "submissionValue": "HAVVLD", "synonyms": ["HAV Viral Load"]}, {"conceptId": "C64849", "definition": "A measurement of the glycosylated hemoglobin in a biological specimen.", "preferredTerm": "Glycosylated Hemoglobin Measurement", "submissionValue": "HBA1C", "synonyms": ["Glycosylated Hemoglobin", "Hemoglobin A1C"]}, {"conceptId": "C111207", "definition": "A relative measurement (ratio or percentage) of the glycosylated hemoglobin to total hemoglobin in a biological specimen.", "preferredTerm": "Hemoglobin A1C to Hemoglobin Ratio Measurement", "submissionValue": "HBA1CHGB", "synonyms": ["Hemoglobin A1C/Hemoglobin"]}, {"conceptId": "C96660", "definition": "A measurement of the hepatitis B virus core antibody in a biological specimen.", "preferredTerm": "Hepatitis B Virus Core Antibody Measurement", "submissionValue": "HBCAB", "synonyms": ["Hepatitis B Virus Core Antibody"]}, {"conceptId": "C119280", "definition": "A measurement of the hepatitis B virus core IgG antibody in a biological specimen.", "preferredTerm": "Hepatitis B Virus Core IgG Antibody Measurement", "submissionValue": "HBCIGGAB", "synonyms": ["Hepatitis B Virus Core IgG Antibody"]}, {"conceptId": "C96661", "definition": "A measurement of the hepatitis B virus core IgM antibody in a biological specimen.", "preferredTerm": "Hepatitis B Virus Core IgM Antibody Measurement", "submissionValue": "HBCIGMAB", "synonyms": ["Hepatitis B Virus Core IgM Antibody"]}, {"conceptId": "C103404", "definition": "A measurement of hepatitis B virus DNA in a biological specimen.", "preferredTerm": "Hepatitis B DNA Measurement", "submissionValue": "HBDNA", "synonyms": ["Hepatitis B DNA"]}, {"conceptId": "C96662", "definition": "A measurement of the hepatitis B e antibody in a biological specimen.", "preferredTerm": "Hepatitis B Virus e Antibody Measurement", "submissionValue": "HBEAB", "synonyms": ["Hepatitis B Virus e Antibody"]}, {"conceptId": "C96663", "definition": "A measurement of the hepatitis B e antigen in a biological specimen.", "preferredTerm": "Hepatitis B Virus e Antigen Measurement", "submissionValue": "HBEAG", "synonyms": ["Hepatitis B Virus e Antigen"]}, {"conceptId": "C74711", "definition": "A measurement of the surface antibody reaction of a biological specimen to the Hepatitis B virus.", "preferredTerm": "Hepatitis B Surface Antibody Measurement", "submissionValue": "HBSAB", "synonyms": ["Anti-HBs", "HBsAb", "Hepatitis B Virus Surface Antibody"]}, {"conceptId": "C64850", "definition": "A measurement of the surface antigen reaction of a biological specimen to the Hepatitis B virus.", "preferredTerm": "Hepatitis B Virus Surface Antigen Measurement", "submissionValue": "HBSAG", "synonyms": ["HBsAg", "Hepatitis B Virus Surface Antigen"]}, {"conceptId": "C92542", "definition": "A measurement of the hepatitis B viral load in a biological specimen.", "preferredTerm": "Hepatitis B Viral Load Measurement", "submissionValue": "HBVVLD", "synonyms": ["HBV Viral Load"]}, {"conceptId": "C92535", "definition": "A measurement of the antibody reaction of a biological specimen to the Hepatitis C virus.", "preferredTerm": "Hepatitis C Antibody Measurement", "submissionValue": "HCAB", "synonyms": ["Hepatitis C Virus Antibody"]}, {"conceptId": "C116196", "definition": "A measurement of the hepatitis C virus antigen in a biological specimen.", "preferredTerm": "Hepatitis C Virus Antigen Measurement", "submissionValue": "HCAG", "synonyms": ["Hepatitis C Virus Antigen"]}, {"conceptId": "C64851", "definition": "A measurement of the Choriogonadotropin Beta in a biological specimen.", "preferredTerm": "Choriogonadotropin Beta Measurement", "submissionValue": "HCG", "synonyms": ["Choriogonadotropin Beta", "Pregnancy Test"]}, {"conceptId": "C64796", "definition": "The percentage of a whole blood specimen that is composed of red blood cells (erythrocytes).", "preferredTerm": "Hematocrit Measurement", "submissionValue": "HCT", "synonyms": ["EVF", "Erythrocyte Volume Fraction", "Hematocrit", "PCV", "Packed Cell Volume"]}, {"conceptId": "C92543", "definition": "A measurement of the hepatitis C viral load in a biological specimen.", "preferredTerm": "Hepatitis C Viral Load Measurement", "submissionValue": "HCVVLD", "synonyms": ["HCV RNA", "HCV Viral Load", "Hepatitis C RNA"]}, {"conceptId": "C96664", "definition": "A measurement of the hepatitis D virus antibody in a biological specimen.", "preferredTerm": "Hepatitis D Virus Antibody Measurement", "submissionValue": "HDAB", "synonyms": ["Hepatitis D Virus Antibody", "Hepatitis Delta Antibody"]}, {"conceptId": "C119281", "definition": "A measurement of the hepatitis D virus IgG antibody in a biological specimen.", "preferredTerm": "Hepatitis D Virus IgG Antibody Measurement", "submissionValue": "HDIGGAB", "synonyms": ["Hepatitis D Virus IgG Antibody"]}, {"conceptId": "C119282", "definition": "A measurement of the hepatitis D virus IgM antibody in a biological specimen.", "preferredTerm": "Hepatitis D Virus IgM Antibody Measurement", "submissionValue": "HDIGMAB", "synonyms": ["Hepatitis D Virus IgM Antibody"]}, {"conceptId": "C105587", "definition": "A measurement of the high density lipoprotein cholesterol in a biological specimen.", "preferredTerm": "High Density Lipoprotein Cholesterol Measurement", "submissionValue": "HDL", "synonyms": ["HDL Cholesterol"]}, {"conceptId": "C80187", "definition": "A measurement of the high-density lipoprotein (HDL) cholesterol subclass 2 in a biological specimen.", "preferredTerm": "HDL-Cholesterol Subclass 2 Measurement", "submissionValue": "HDL2", "synonyms": ["HDL-Cholesterol Subclass 2"]}, {"conceptId": "C80188", "definition": "A measurement of the high-density lipoprotein (HDL) cholesterol subclass 3 in a biological specimen.", "preferredTerm": "HDL-Cholesterol Subclass 3 Measurement", "submissionValue": "HDL3", "synonyms": ["HDL-Cholesterol Subclass 3"]}, {"conceptId": "C100425", "definition": "A relative measurement (ratio or percentage) of the amount of HDL cholesterol compared to LDL cholesterol in a biological specimen.", "preferredTerm": "HDL Cholesterol to LDL Cholesterol Ratio Measurement", "submissionValue": "HDLCLDLC", "synonyms": ["HDL Cholesterol/LDL Cholesterol"]}, {"conceptId": "C103402", "definition": "A measurement of the average particle size of high-density lipoprotein in a biological specimen.", "preferredTerm": "HDL Particle Size Measurement", "submissionValue": "HDLPSZ", "synonyms": ["HDL Particle Size"]}, {"conceptId": "C106525", "definition": "A measurement of the distribution of the hemoglobin concentration in red blood cells.", "preferredTerm": "Hemoglobin Distribution Width Measurement", "submissionValue": "HDW", "synonyms": ["Hemoglobin Distribution Width"]}, {"conceptId": "C119283", "definition": "A measurement of the antibody reaction of a biological specimen to the Hepatitis E virus.", "preferredTerm": "Hepatitis E Virus Antibody Measurement", "submissionValue": "HEAB", "synonyms": ["Hepatitis E Virus Antibody"]}, {"conceptId": "C106526", "definition": "A measurement of IgG antibody to the hepatitis E virus in a biological specimen.", "preferredTerm": "Hepatitis E Virus IgG Antibody Measurement", "submissionValue": "HEIGGAB", "synonyms": ["Hepatitis E Virus IgG Antibody"]}, {"conceptId": "C96665", "definition": "A measurement of the hepatitis E virus IgM antibody in a biological specimen.", "preferredTerm": "Hepatitis E Virus IgM Antibody Measurement", "submissionValue": "HEIGMAB", "synonyms": ["Hepatitis E Virus IgM Antibody"]}, {"conceptId": "C74709", "definition": "A measurement of the Heinz bodies (small round inclusions within the body of a red blood cell) in a biological specimen.", "preferredTerm": "Heinz-Ehrlich Body Measurement", "submissionValue": "HEINZ", "synonyms": ["Heinz Bodies", "Heinz-Erhlich Bodies"]}, {"conceptId": "C111206", "definition": "A relative measurement (ratio or percentage) of the erythrocytes that contain heinz bodies to total erythrocytes in a biological specimen.", "preferredTerm": "Heinz Body to Erythrocyte Ratio Measurement", "submissionValue": "HEINZRBC", "synonyms": ["Heinz Bodies/Erythrocytes"]}, {"conceptId": "C74658", "definition": "A measurement of the Helmet cells (specialized Keratocytes with two projections on either end that are tapered and hornlike) in a biological specimen.", "preferredTerm": "Helmet Cell Count", "submissionValue": "HELMETCE", "synonyms": ["Helmet Cells"]}, {"conceptId": "C111208", "definition": "A measurement of the destruction of red blood cells in a biological specimen.", "preferredTerm": "Hemolytic Index", "submissionValue": "HEMOLYSI", "synonyms": ["Hemolysis", "Hemolytic Index"]}, {"conceptId": "C112312", "definition": "A measurement of HER2 protein in a biological specimen.", "preferredTerm": "Human Epidermal Growth Factor Receptor 2 Measurement", "submissionValue": "HER2", "synonyms": ["ERBB2", "HER2/NEU", "Human Epidermal Growth Factor Receptor 2"]}, {"conceptId": "C112291", "definition": "A measurement of the HER2 antigen in a biological specimen.", "preferredTerm": "HER2 Antigen Measurement", "submissionValue": "HER2AG", "synonyms": ["HER2 Antigen", "HER2/NEU Antigen"]}, {"conceptId": "C116186", "definition": "A measurement of heterophils (granular leukocytes) in a biological specimen from avian species.", "preferredTerm": "Heterophil Measurement", "submissionValue": "HETRPH", "synonyms": ["Heterophils"]}, {"conceptId": "C116187", "definition": "A relative measurement (ratio or percentage) of heterophils to leukocytes in a biological specimen from avian species.", "preferredTerm": "Heterophils to Leukocytes Ratio Measurement", "submissionValue": "HETRPHLE", "synonyms": ["Heterophils/Leukocytes"]}, {"conceptId": "C96668", "definition": "A measurement of the hexokinase in a biological specimen.", "preferredTerm": "Hexokinase Measurement", "submissionValue": "HEXK", "synonyms": ["Hexokinase"]}, {"conceptId": "C64848", "definition": "A measurement of the non-cellular hemoglobin in a biological specimen.", "preferredTerm": "Hemoglobin Measurement", "submissionValue": "HGB", "synonyms": ["FHGB", "Free Hemoglobin", "Hemoglobin"]}, {"conceptId": "C92258", "definition": "A measurement of the hemoglobin A in a biological specimen.", "preferredTerm": "Hemoglobin A Measurement", "submissionValue": "HGBA", "synonyms": ["Hemoglobin A"]}, {"conceptId": "C92259", "definition": "A measurement of the hemoglobin A2 in a biological specimen.", "preferredTerm": "Hemoglobin A2 Measurement", "submissionValue": "HGBA2", "synonyms": ["Hemoglobin A2"]}, {"conceptId": "C92260", "definition": "A measurement of the hemoglobin B in a biological specimen.", "preferredTerm": "Hemoglobin B Measurement", "submissionValue": "HGBB", "synonyms": ["Hemoglobin B"]}, {"conceptId": "C92261", "definition": "A measurement of the hemoglobin C in a biological specimen.", "preferredTerm": "Hemoglobin C Measurement", "submissionValue": "HGBC", "synonyms": ["Hemoglobin C"]}, {"conceptId": "C124343", "definition": "A measurement of the deoxyhemoglobin, hemoglobin without oxygen, in a biological specimen.", "preferredTerm": "Deoxyhemoglobin Measurement", "submissionValue": "HGBDOXY", "synonyms": ["Deoxyhemoglobin"]}, {"conceptId": "C92262", "definition": "A measurement of the hemoglobin F in a biological specimen.", "preferredTerm": "Hemoglobin F Measurement", "submissionValue": "HGBF", "synonyms": ["Fetal Hemoglobin", "Hemoglobin F"]}, {"conceptId": "C96689", "definition": "A measurement of the methemoglobin in a biological specimen.", "preferredTerm": "Methemoglobin Measurement", "submissionValue": "HGBMET", "synonyms": ["Methemoglobin"]}, {"conceptId": "C96616", "definition": "A measurement of the oxyhemoglobin, oxygen-bound hemoglobin, in a biological specimen.", "preferredTerm": "Oxyhemoglobin Measurement", "submissionValue": "HGBOXY", "synonyms": ["Oxyhemoglobin"]}, {"conceptId": "C122123", "definition": "A measurement of the hemoglobin S in a biological specimen.", "preferredTerm": "Hemoglobin S Measurement", "submissionValue": "HGBS", "synonyms": ["Hemoglobin S", "Sickle Hemoglobin"]}, {"conceptId": "C92272", "definition": "A measurement of the Hepatitis G RNA in a biological specimen.", "preferredTerm": "Hepatitis G RNA Measurement", "submissionValue": "HGRNA", "synonyms": ["Hepatitis G RNA"]}, {"conceptId": "C122124", "definition": "A measurement of the histidine in a biological specimen.", "preferredTerm": "Histidine Measurement", "submissionValue": "HIS", "synonyms": ["Histidine"]}, {"conceptId": "C112293", "definition": "A measurement of the total histone 1 antibodies in a biological specimen.", "preferredTerm": "Histone 1 Antibody Measurement", "submissionValue": "HIST1AB", "synonyms": ["Histone 1 Antibody"]}, {"conceptId": "C112294", "definition": "A measurement of the total histone 2A antibodies in a biological specimen.", "preferredTerm": "Histone 2A Antibody Measurement", "submissionValue": "HIST2AAB", "synonyms": ["Histone 2A Antibody"]}, {"conceptId": "C112295", "definition": "A measurement of the total histone 2B antibodies in a biological specimen.", "preferredTerm": "Histone 2B Antibody Measurement", "submissionValue": "HIST2BAB", "synonyms": ["Histone 2B Antibody"]}, {"conceptId": "C112296", "definition": "A measurement of the total histone 3 antibodies in a biological specimen.", "preferredTerm": "Histone 3 Antibody Measurement", "submissionValue": "HIST3AB", "synonyms": ["Histone 3 Antibody"]}, {"conceptId": "C112297", "definition": "A measurement of the total histone 4 antibodies in a biological specimen.", "preferredTerm": "Histone 4 Antibody Measurement", "submissionValue": "HIST4AB", "synonyms": ["Histone 4 Antibody"]}, {"conceptId": "C111209", "definition": "A measurement of histone antibodies in a biological specimen.", "preferredTerm": "Histone Antibody Measurement", "submissionValue": "HISTAB", "synonyms": ["Anti-Histone Antibodies", "Histone Antibodies"]}, {"conceptId": "C80189", "definition": "A measurement of the histamine in a biological specimen.", "preferredTerm": "Histamine Measurement", "submissionValue": "HISTAMIN", "synonyms": ["Histamine"]}, {"conceptId": "C92265", "definition": "A measurement of the HIV-1 p24 antigen in a biological specimen.", "preferredTerm": "HIV-1 p24 Antigen Measurement", "submissionValue": "HIV124AG", "synonyms": ["HIV-1 p24 Antigen"]}, {"conceptId": "C74714", "definition": "A measurement of the antibody reaction of a biological specimen to either the HIV-1 or HIV-2 virus.", "preferredTerm": "HIV-1 HIV-2 Antibody Measurement", "submissionValue": "HIV12AB", "synonyms": ["HIV-1/2 Antibody"]}, {"conceptId": "C74713", "definition": "A measurement of the antibody reaction of a biological specimen to the HIV-1 virus.", "preferredTerm": "HIV-1 Antibody Measurement", "submissionValue": "HIV1AB", "synonyms": ["HIV-1 Antibody"]}, {"conceptId": "C92263", "definition": "A measurement of the HIV-1 group M and O nucleic acids in a biological specimen.", "preferredTerm": "HIV-1 Group M and O Nucleic Acid Measurement", "submissionValue": "HIV1MONA", "synonyms": ["HIV-1 Group M and O Nucleic Acid"]}, {"conceptId": "C92264", "definition": "A measurement of the HIV-1 group O antibody in a biological specimen.", "preferredTerm": "HIV-1 Group O Antibody Measurement", "submissionValue": "HIV1OAB", "synonyms": ["HIV-1 Group O Antibody"]}, {"conceptId": "C74715", "definition": "A measurement of the antibody reaction of a biological specimen to the HIV-2 virus.", "preferredTerm": "HIV-2 Antibody Measurement", "submissionValue": "HIV2AB", "synonyms": ["HIV-2 Antibody"]}, {"conceptId": "C92266", "definition": "A measurement of the HIV-2 nucleic acids in a biological specimen.", "preferredTerm": "HIV-2 Nucleic Acid Measurement", "submissionValue": "HIV2NUAC", "synonyms": ["HIV-2 Nucleic Acid"]}, {"conceptId": "C106527", "definition": "A measurement of the antibody reaction of a biological specimen to the HIV virus.", "preferredTerm": "HIV Antibody Measurement", "submissionValue": "HIVAB", "synonyms": ["HIV Antibody"]}, {"conceptId": "C92544", "definition": "A measurement of the HIV viral load in a biological specimen.", "preferredTerm": "HIV Viral Load Measurement", "submissionValue": "HIVVLD", "synonyms": ["HIV Viral Load"]}, {"conceptId": "C100460", "definition": "A measurement of the human leukocyte antigen B27 (HLA-B27) in a biological specimen.", "preferredTerm": "HLA-B27 Antigen Measurement", "submissionValue": "HLAB27AG", "synonyms": ["HLA-B27 Antigen", "Human Leukocyte Antigen B27"]}, {"conceptId": "C96659", "definition": "A measurement of the hemosiderin complex in a biological specimen.", "preferredTerm": "Hemosiderin Measurement", "submissionValue": "HMOSIDRN", "synonyms": ["Hemosiderin"]}, {"conceptId": "C74741", "definition": "A measurement of the homocysteine amino acid in a biological specimen.", "preferredTerm": "Homocysteine Acid Measurement", "submissionValue": "HOMOCY", "synonyms": ["Homocysteine"]}, {"conceptId": "C74704", "definition": "A measurement of the Howell-Jolly bodies (spherical, blue-black condensed DNA inclusions within the body of a red blood cell that appear under Wright-stain) in a biological specimen.", "preferredTerm": "Howell-Jolly Body Measurement", "submissionValue": "HOWJOL", "synonyms": ["Howell-Jolly Bodies"]}, {"conceptId": "C103403", "definition": "A measurement of the Helicobacter pylori IgG antibody in a biological specimen.", "preferredTerm": "Helicobacter pylori IgG Antibody Measurement", "submissionValue": "HPLIGGAB", "synonyms": ["Helicobacter pylori IgG Antibody"]}, {"conceptId": "C64802", "definition": "An observation which indicates that the hemoglobin concentration in a red blood cell specimen has fallen below a specified level.", "preferredTerm": "Hypochromia", "submissionValue": "HPOCROM", "synonyms": ["Hypochromia"]}, {"conceptId": "C74640", "definition": "A relative measurement (ratio or percentage) of the hairy cells (b-cell lymphocytes with hairy projections from the cytoplasm) to all lymphocytes in a biological specimen .", "preferredTerm": "Hairy Cell to Lymphocyte Ratio Measurement", "submissionValue": "HRYCELY", "synonyms": ["Hairy Cells/Lymphocytes"]}, {"conceptId": "C96697", "definition": "A measurement of the herpes simplex virus 1 and 2 IgG antibody in a biological specimen.", "preferredTerm": "Herpes Simplex Virus 1/2 IgG Antibody Measurement", "submissionValue": "HS12GGAB", "synonyms": ["HSV-1/2 IgG Ab", "Herpes Simplex Virus 1/2 IgG Antibody"]}, {"conceptId": "C96698", "definition": "A measurement of the herpes simplex virus 1 and 2 IgM antibody in a biological specimen.", "preferredTerm": "Herpes Simplex Virus 1/2 IgM Antibody Measurement", "submissionValue": "HS12GMAB", "synonyms": ["HSV-1/2 IgM Ab", "Herpes Simplex Virus 1/2 IgM Antibody"]}, {"conceptId": "C96666", "definition": "A measurement of the herpes simplex virus 1 IgG antibody in a biological specimen.", "preferredTerm": "Herpes Simplex Virus 1 IgG Antibody Measurement", "submissionValue": "HS1IGGAB", "synonyms": ["HSV-1 IgG Antibody", "Herpes Simplex Virus 1 IgG Antibody"]}, {"conceptId": "C98738", "definition": "A measurement of the Herpes Simplex virus 1 IgM antibodies in a biological specimen.", "preferredTerm": "Herpes Simplex Virus 1 IgM Antibody Measurement", "submissionValue": "HS1IGMAB", "synonyms": ["Herpes Simplex Virus 1 IgM Antibody"]}, {"conceptId": "C96667", "definition": "A measurement of the herpes simplex virus 2 IgG antibody in a biological specimen.", "preferredTerm": "Herpes Simplex Virus 2 IgG Antibody Measurement", "submissionValue": "HS2IGGAB", "synonyms": ["HSV-2 IgG Antibody", "Herpes Simplex Virus 2 IgG Antibody"]}, {"conceptId": "C98739", "definition": "A measurement of the Herpes Simplex virus 2 IgM antibodies in a biological specimen.", "preferredTerm": "Herpes Simplex Virus 2 IgM Antibody Measurement", "submissionValue": "HS2IGMAB", "synonyms": ["Herpes Simplex Virus 2 IgM Antibody"]}, {"conceptId": "C112292", "definition": "A measurement of the herpes simplex virus 6 antibody in a biological specimen.", "preferredTerm": "Herpes Simplex Virus 6 Antibody Measurement", "submissionValue": "HS6AB", "synonyms": ["Herpes Simplex Virus 6 Antibody"]}, {"conceptId": "C122125", "definition": "A measurement of the antibody reaction of a biological specimen to either the HTLV-1 or HTLV-2 virus.", "preferredTerm": "HTLV-I HTLV-II Antibody Measurement", "submissionValue": "HTLV12AB", "synonyms": ["HTLV-1/2 Antibody", "HTLV-I/II Antibody", "Human T-cell Lymphotropic Virus 1/2 Antibody"]}, {"conceptId": "C81984", "definition": "A measurement of the heterophile antibodies in a biological specimen.", "preferredTerm": "Heterophile Antibody Measurement", "submissionValue": "HTPHAB", "synonyms": ["Heterophile Antibodies"]}, {"conceptId": "C74863", "definition": "A measurement of the homovanillic acid metabolite in a biological specimen.", "preferredTerm": "Homovanillic Acid Measurement", "submissionValue": "HVA", "synonyms": ["Homovanillic Acid"]}, {"conceptId": "C112319", "definition": "A measurement of hyaluronic acid in a biological specimen.", "preferredTerm": "Hyaluronic Acid Measurement", "submissionValue": "HYALUAC", "synonyms": ["Hyaluronic Acid"]}, {"conceptId": "C74879", "definition": "A measurement of the hydrocodone present in a biological specimen.", "preferredTerm": "Hydrocodone Measurement", "submissionValue": "HYDCDN", "synonyms": ["Hydrocodone"]}, {"conceptId": "C74880", "definition": "A measurement of the hydromorphone present in a biological specimen.", "preferredTerm": "Hydromorphone Measurement", "submissionValue": "HYDMRPHN", "synonyms": ["Hydromorphone"]}, {"conceptId": "C102275", "definition": "A measurement of the hydrogen in a biological specimen.", "preferredTerm": "Hydrogen Measurement", "submissionValue": "HYDROGEN", "synonyms": ["Hydrogen"]}, {"conceptId": "C96669", "definition": "A measurement of the prevalence of the erthrocytes with an elevated hemoglobin concentration.", "preferredTerm": "Hyperchromia Measurement", "submissionValue": "HYPERCHR", "synonyms": ["Hyperchromia"]}, {"conceptId": "C80190", "definition": "A measurement of the total hydroxyproline in a biological specimen.", "preferredTerm": "Hydroxyproline Measurement", "submissionValue": "HYPRLN", "synonyms": ["Hydroxyproline"]}, {"conceptId": "C74612", "definition": "A measurement of the hypersegmented (more than five lobes) neutrophils in a biological specimen.", "preferredTerm": "Hypersegmented Neutrophil Measurement", "submissionValue": "HYPSEGCE", "synonyms": ["Hypersegmented Cells"]}, {"conceptId": "C119284", "definition": "A measurement of the insulinoma-associated protein 2 antibody in a biological specimen.", "preferredTerm": "Insulinoma-Associated Protein 2 Antibody Measurement", "submissionValue": "IA2AB", "synonyms": ["Insulinoma-Associated Protein 2 Antibody"]}, {"conceptId": "C112217", "definition": "A measurement of 5-hydroxyindoleacetic acid in a biological specimen.", "preferredTerm": "5-Hydroxyindoleacetic Acid Measurement", "submissionValue": "IAA5OH", "synonyms": ["5-Hydroxyindoleacetic Acid"]}, {"conceptId": "C92273", "definition": "A measurement of the Influenza A H1N1 viral load in a biological specimen.", "preferredTerm": "Influenza A H1N1 Viral Load Measurement", "submissionValue": "IAH1N1VL", "synonyms": ["Influenza A H1N1 Viral Load"]}, {"conceptId": "C103408", "definition": "A measurement of the Influenza A IgG antibody in a biological specimen.", "preferredTerm": "Influenza A IgG Antibody Measurement", "submissionValue": "IAIGGAB", "synonyms": ["Influenza A IgG Antibody"]}, {"conceptId": "C74718", "definition": "A measurement of the amount of iron needed to fully saturate the transferrin in a biological specimen.", "preferredTerm": "Total Iron Binding Capacity", "submissionValue": "IBCT", "synonyms": ["Total Iron Binding Capacity"]}, {"conceptId": "C74719", "definition": "A measurement of the binding capacity of unsaturated iron in a biological specimen.", "preferredTerm": "Unsaturated Iron Binding Capacity Measurement", "submissionValue": "IBCU", "synonyms": ["Unsaturated Iron Binding Capacity"]}, {"conceptId": "C103409", "definition": "A measurement of the Influenza B IgG antibody in a biological specimen.", "preferredTerm": "Influenza B IgG Antibody Measurement", "submissionValue": "IBIGGAB", "synonyms": ["Influenza B IgG Antibody"]}, {"conceptId": "C81985", "definition": "A measurement of the islet cell 512 antibody in a biological specimen.", "preferredTerm": "Islet Cell 512 Antibody Measurement", "submissionValue": "IC512AB", "synonyms": ["Islet Cell 512 Antibody"]}, {"conceptId": "C81986", "definition": "A measurement of the islet cell 512 antigen in a biological specimen.", "preferredTerm": "Islet Cell 512 Antigen Measurement", "submissionValue": "IC512AG", "synonyms": ["Islet Cell 512 Antigen"]}, {"conceptId": "C122126", "definition": "A measurement of the islet cell cytoplasmic IgG antibody in a biological specimen.", "preferredTerm": "Islet Cell Cytoplasmic IgG Antibody Measurement", "submissionValue": "ICAIGGAB", "synonyms": ["Islet Cell Cytoplasmic IgG Antibody"]}, {"conceptId": "C124344", "definition": "A measurement of the total intercellular adhesion molecule in a biological specimen.", "preferredTerm": "Intercellular Adhesion Molecule Measurement", "submissionValue": "ICAM", "synonyms": ["Intercellular Adhesion Molecule"]}, {"conceptId": "C124345", "definition": "A measurement of the intercellular adhesion molecule 1 in a biological specimen.", "preferredTerm": "Intercellular Adhesion Molecule 1 Measurement", "submissionValue": "ICAM1", "synonyms": ["CD54", "Intercellular Adhesion Molecule 1"]}, {"conceptId": "C111232", "definition": "A measurement of the yellow color of a biological specimen, due to the presence of bile pigments.", "preferredTerm": "Icteric Index", "submissionValue": "ICTERUSI", "synonyms": ["Icteric Index", "Icterus"]}, {"conceptId": "C112325", "definition": "A measurement of the intermediate density lipoprotein in a biological specimen.", "preferredTerm": "Intermediate Density Lipoprotein Cholesterol Measurement", "submissionValue": "IDL", "synonyms": ["IDL Cholesterol", "Intermediate Density Lipoprotein"]}, {"conceptId": "C116197", "definition": "A measurement of the concentration of IDL particles in a biological specimen.", "preferredTerm": "IDL Particles Measurement", "submissionValue": "IDLP", "synonyms": ["IDL Particles", "Intermediate Density Lipoproteins Particles"]}, {"conceptId": "C81994", "definition": "A measurement of the interferon alpha in a biological specimen.", "preferredTerm": "Interferon Alpha Measurement", "submissionValue": "IFNA", "synonyms": ["Interferon Alpha"]}, {"conceptId": "C81995", "definition": "A measurement of the interferon beta in a biological specimen.", "preferredTerm": "Interferon Beta Measurement", "submissionValue": "IFNB", "synonyms": ["Interferon Beta"]}, {"conceptId": "C81996", "definition": "A measurement of the interferon gamma in a biological specimen.", "preferredTerm": "Interferon Gamma Measurement", "submissionValue": "IFNG", "synonyms": ["Interferon Gamma"]}, {"conceptId": "C81969", "definition": "A measurement of the Immunoglobulin A in a biological specimen.", "preferredTerm": "Immunoglobulin A Measurement", "submissionValue": "IGA", "synonyms": ["Immunoglobulin A"]}, {"conceptId": "C111233", "definition": "A measurement of the total IgG, IgM, and IgA in a biological specimen.", "preferredTerm": "IgG IgM IgA Total Measurement", "submissionValue": "IGAGM", "synonyms": ["IgG IgM IgA Total"]}, {"conceptId": "C98745", "definition": "A measurement of the Immunoglobulin D in a biological specimen.", "preferredTerm": "Immunoglobulin D Measurement", "submissionValue": "IGD", "synonyms": ["Immunoglobulin D"]}, {"conceptId": "C81970", "definition": "A measurement of the Immunoglobulin E in a biological specimen.", "preferredTerm": "Immunoglobulin E Measurement", "submissionValue": "IGE", "synonyms": ["Immunoglobulin E"]}, {"conceptId": "C74864", "definition": "A measurement of the insulin-like growth factor-1 in a biological specimen.", "preferredTerm": "Insulin Like Growth Factor-1 Measurement", "submissionValue": "IGF1", "synonyms": ["Insulin-like Growth Factor-1"]}, {"conceptId": "C74865", "definition": "A measurement of the insulin-like growth factor-2 in a biological specimen.", "preferredTerm": "Insulin Like Growth Factor-2 Measurement", "submissionValue": "IGF2", "synonyms": ["Insulin-like Growth Factor-2"]}, {"conceptId": "C112322", "definition": "A measurement of the insulin-like growth factor binding protein 3 in a biological specimen.", "preferredTerm": "Insulin-Like Growth Factor Binding Protein 3 Measurement", "submissionValue": "IGFBP3", "synonyms": ["Insulin-Like Growth Factor Binding Prot3", "Insulin-Like Growth Factor Binding Protein 3"]}, {"conceptId": "C81971", "definition": "A measurement of the Immunoglobulin G in a biological specimen.", "preferredTerm": "Immunoglobulin G Measurement", "submissionValue": "IGG", "synonyms": ["Immunoglobulin G"]}, {"conceptId": "C122127", "definition": "A measurement of the immunoglobulin G subclass 1 in a biological specimen.", "preferredTerm": "Immunoglobulin G Subclass 1 Measurement", "submissionValue": "IGG1", "synonyms": ["Immunoglobulin G Subclass 1"]}, {"conceptId": "C122128", "definition": "A measurement of the immunoglobulin G subclass 2 in a biological specimen.", "preferredTerm": "Immunoglobulin G Subclass 2 Measurement", "submissionValue": "IGG2", "synonyms": ["Immunoglobulin G Subclass 2"]}, {"conceptId": "C122129", "definition": "A measurement of the immunoglobulin G subclass 3 in a biological specimen.", "preferredTerm": "Immunoglobulin G Subclass 3 Measurement", "submissionValue": "IGG3", "synonyms": ["Immunoglobulin G Subclass 3"]}, {"conceptId": "C122130", "definition": "A measurement of the immunoglobulin G subclass 4 in a biological specimen.", "preferredTerm": "Immunoglobulin G Subclass 4 Measurement", "submissionValue": "IGG4", "synonyms": ["Immunoglobulin G Subclass 4"]}, {"conceptId": "C119285", "definition": "A relative measurement (ratio or percentage) of the immunoglobulin G to creatinine in a biological specimen.", "preferredTerm": "Immunoglobulin G to Creatinine Ratio Measurement", "submissionValue": "IGGCREAT", "synonyms": ["Immunoglobulin G/Creatinine"]}, {"conceptId": "C81972", "definition": "A measurement of the Immunoglobulin M in a biological specimen.", "preferredTerm": "Immunoglobulin M Measurement", "submissionValue": "IGM", "synonyms": ["Immunoglobulin M"]}, {"conceptId": "C117835", "definition": "A measurement of the soluble total immunoglobulin in a biological specimen.", "preferredTerm": "Soluble Immunoglobulin Measurement", "submissionValue": "IGSOL", "synonyms": ["Soluble Immunoglobulin"]}, {"conceptId": "C117836", "definition": "A measurement of the soluble interleukin-1 receptor type I in a biological specimen.", "preferredTerm": "Soluble Interleukin-1 Receptor Type I Measurement", "submissionValue": "IL1SR1", "synonyms": ["Soluble Interleukin-1 Receptor Type I"]}, {"conceptId": "C102280", "definition": "A measurement of the soluble interleukin 2 receptor activity in a biological specimen.", "preferredTerm": "Soluble Interleukin 2 Receptor Activity Measurement", "submissionValue": "IL2SRA", "synonyms": ["Soluble Interleukin 2 Receptor Activity"]}, {"conceptId": "C117837", "definition": "A measurement of the soluble interleukin 6 receptor in a biological specimen.", "preferredTerm": "Soluble Interleukin 6 Receptor Measurement", "submissionValue": "IL6SR", "synonyms": ["Soluble Interleukin 6 Receptor"]}, {"conceptId": "C103410", "definition": "A measurement of the isoleucine in a biological specimen.", "preferredTerm": "Isoleucine Measurement", "submissionValue": "ILE", "synonyms": ["Isoleucine"]}, {"conceptId": "C116184", "definition": "A measurement of the inclusion bodies in a biological specimen.", "preferredTerm": "Inclusion Body Measurement", "submissionValue": "INCLBOD", "synonyms": ["Inclusion Bodies"]}, {"conceptId": "C82044", "definition": "A measurement of the indican present in a biological specimen.", "preferredTerm": "Indican Measurement", "submissionValue": "INDICAN", "synonyms": ["Indican"]}, {"conceptId": "C92274", "definition": "A measurement of the Influenza A viral load in a biological specimen.", "preferredTerm": "Influenza A Viral Load Measurement", "submissionValue": "INFAVLD", "synonyms": ["Influenza A Viral Load"]}, {"conceptId": "C81987", "definition": "A measurement of the islet neogenesis associated protein antibody in a biological specimen.", "preferredTerm": "Islet Neogenesis Associated Protein Antibody Measurement", "submissionValue": "INGAPAB", "synonyms": ["Islet Neogenesis Assoc Protein Antibody"]}, {"conceptId": "C82020", "definition": "A measurement of the inhibin A in a biological specimen.", "preferredTerm": "Inhibin A Measurement", "submissionValue": "INHIBINA", "synonyms": ["Inhibin A"]}, {"conceptId": "C96681", "definition": "A measurement of the inhibin B in a biological specimen.", "preferredTerm": "Inhibin B Measurement", "submissionValue": "INHIBINB", "synonyms": ["Inhibin B"]}, {"conceptId": "C98748", "definition": "A measurement of the volume of serum or plasma that would be cleared of inulin by excretion of urine for a specified unit of time (e.g. one minute).", "preferredTerm": "Inulin Clearance", "submissionValue": "INLCLR", "synonyms": ["Inulin Clearance"]}, {"conceptId": "C64805", "definition": "A ratio that represents the prothrombin time for a plasma specimen, divided by the result for a control plasma specimen, further standardized for the International Sensitivity Index of the tissue factor (thromboplastin) used in the test.", "preferredTerm": "International Normalized Ratio of Prothrombin Time", "submissionValue": "INR", "synonyms": ["Prothrombin Intl. Normalized Ratio"]}, {"conceptId": "C119286", "definition": "A measurement of the antibody to endogenous insulin in a biological specimen.", "preferredTerm": "Insulin Autoantibody Measurement", "submissionValue": "INSAAB", "synonyms": ["Insulin Autoantibody"]}, {"conceptId": "C119287", "definition": "A measurement of the antibody to therapeutic insulin in a biological specimen.", "preferredTerm": "Insulin Antibody Measurement", "submissionValue": "INSAB", "synonyms": ["Insulin Antibody"]}, {"conceptId": "C74788", "definition": "A measurement of the insulin in a biological specimen.", "preferredTerm": "Insulin Measurement", "submissionValue": "INSULIN", "synonyms": ["Insulin"]}, {"conceptId": "C123458", "definition": "A measurement of the insulin resistance (a cell's inability to respond to insulin) in a biological specimen.", "preferredTerm": "Insulin Resistance Measurement", "submissionValue": "INSULINR", "synonyms": ["Insulin Resistance"]}, {"conceptId": "C123459", "definition": "A measurement of the insulin sensitivity (cells are stimulated by lower than normal insulin levels) in a biological specimen.", "preferredTerm": "Insulin Sensitivity Measurement", "submissionValue": "INSULINS", "synonyms": ["Insulin Sensitivity"]}, {"conceptId": "C74805", "definition": "A measurement of the interleukin 1 in a biological specimen.", "preferredTerm": "Interleukin 1 Measurement", "submissionValue": "INTLK1", "synonyms": ["Interleukin 1"]}, {"conceptId": "C74806", "definition": "A measurement of the interleukin 10 in a biological specimen.", "preferredTerm": "Interleukin 10 Measurement", "submissionValue": "INTLK10", "synonyms": ["Interleukin 10"]}, {"conceptId": "C74807", "definition": "A measurement of the interleukin 11 in a biological specimen.", "preferredTerm": "Interleukin 11 Measurement", "submissionValue": "INTLK11", "synonyms": ["Interleukin 11"]}, {"conceptId": "C74808", "definition": "A measurement of the interleukin 12 in a biological specimen.", "preferredTerm": "Interleukin 12 Measurement", "submissionValue": "INTLK12", "synonyms": ["Interleukin 12"]}, {"conceptId": "C74809", "definition": "A measurement of the interleukin 13 in a biological specimen.", "preferredTerm": "Interleukin 13 Measurement", "submissionValue": "INTLK13", "synonyms": ["Interleukin 13"]}, {"conceptId": "C74810", "definition": "A measurement of the interleukin 14 in a biological specimen.", "preferredTerm": "Interleukin 14 Measurement", "submissionValue": "INTLK14", "synonyms": ["Interleukin 14"]}, {"conceptId": "C74811", "definition": "A measurement of the interleukin 15 in a biological specimen.", "preferredTerm": "Interleukin 15 Measurement", "submissionValue": "INTLK15", "synonyms": ["Interleukin 15"]}, {"conceptId": "C74812", "definition": "A measurement of the interleukin 16 in a biological specimen.", "preferredTerm": "Interleukin 16 Measurement", "submissionValue": "INTLK16", "synonyms": ["Interleukin 16"]}, {"conceptId": "C74813", "definition": "A measurement of the interleukin 17 in a biological specimen.", "preferredTerm": "Interleukin 17 Measurement", "submissionValue": "INTLK17", "synonyms": ["Interleukin 17"]}, {"conceptId": "C74814", "definition": "A measurement of the interleukin 18 in a biological specimen.", "preferredTerm": "Interleukin 18 Measurement", "submissionValue": "INTLK18", "synonyms": ["Interleukin 18"]}, {"conceptId": "C74815", "definition": "A measurement of the interleukin 19 in a biological specimen.", "preferredTerm": "Interleukin 19 Measurement", "submissionValue": "INTLK19", "synonyms": ["Interleukin 19"]}, {"conceptId": "C122131", "definition": "A measurement of interleukin 1 alpha in a biological specimen.", "preferredTerm": "Interleukin 1 Alpha Measurement", "submissionValue": "INTLK1A", "synonyms": ["Interleukin 1 Alpha"]}, {"conceptId": "C112323", "definition": "A measurement of interleukin 1 beta in a biological specimen.", "preferredTerm": "Interleukin 1 Beta Measurement", "submissionValue": "INTLK1B", "synonyms": ["IL-1B", "IL1Beta", "Interleukin 1 Beta", "Interleukin 1B"]}, {"conceptId": "C112324", "definition": "A measurement of the interleukin 1 receptor antagonist in a biological specimen.", "preferredTerm": "Interleukin 1 Receptor Antagonist Measurement", "submissionValue": "INTLK1RA", "synonyms": ["IL-1RA", "Interleukin 1 Receptor Antagonist"]}, {"conceptId": "C74816", "definition": "A measurement of the interleukin 2 in a biological specimen.", "preferredTerm": "Interleukin 2 Measurement", "submissionValue": "INTLK2", "synonyms": ["Interleukin 2"]}, {"conceptId": "C74817", "definition": "A measurement of the interleukin 20 in a biological specimen.", "preferredTerm": "Interleukin 20 Measurement", "submissionValue": "INTLK20", "synonyms": ["Interleukin 20"]}, {"conceptId": "C74818", "definition": "A measurement of the interleukin 21 in a biological specimen.", "preferredTerm": "Interleukin 21 Measurement", "submissionValue": "INTLK21", "synonyms": ["Interleukin 21"]}, {"conceptId": "C74819", "definition": "A measurement of the interleukin 22 in a biological specimen.", "preferredTerm": "Interleukin 22 Measurement", "submissionValue": "INTLK22", "synonyms": ["Interleukin 22"]}, {"conceptId": "C74820", "definition": "A measurement of the interleukin 23 in a biological specimen.", "preferredTerm": "Interleukin 23 Measurement", "submissionValue": "INTLK23", "synonyms": ["Interleukin 23"]}, {"conceptId": "C74821", "definition": "A measurement of the interleukin 24 in a biological specimen.", "preferredTerm": "Interleukin 24 Measurement", "submissionValue": "INTLK24", "synonyms": ["Interleukin 24"]}, {"conceptId": "C74822", "definition": "A measurement of the interleukin 25 in a biological specimen.", "preferredTerm": "Interleukin 25 Measurement", "submissionValue": "INTLK25", "synonyms": ["Interleukin 25"]}, {"conceptId": "C74823", "definition": "A measurement of the interleukin 26 in a biological specimen.", "preferredTerm": "Interleukin 26 Measurement", "submissionValue": "INTLK26", "synonyms": ["Interleukin 26"]}, {"conceptId": "C74824", "definition": "A measurement of the interleukin 27 in a biological specimen.", "preferredTerm": "Interleukin 27 Measurement", "submissionValue": "INTLK27", "synonyms": ["Interleukin 27"]}, {"conceptId": "C74825", "definition": "A measurement of the interleukin 28 in a biological specimen.", "preferredTerm": "Interleukin 28 Measurement", "submissionValue": "INTLK28", "synonyms": ["Interleukin 28"]}, {"conceptId": "C74826", "definition": "A measurement of the interleukin 29 in a biological specimen.", "preferredTerm": "Interleukin 29 Measurement", "submissionValue": "INTLK29", "synonyms": ["Interleukin 29"]}, {"conceptId": "C74827", "definition": "A measurement of the interleukin 3 in a biological specimen.", "preferredTerm": "Interleukin 3 Measurement", "submissionValue": "INTLK3", "synonyms": ["Interleukin 3"]}, {"conceptId": "C74828", "definition": "A measurement of the interleukin 30 in a biological specimen.", "preferredTerm": "Interleukin 30 Measurement", "submissionValue": "INTLK30", "synonyms": ["Interleukin 30"]}, {"conceptId": "C74829", "definition": "A measurement of the interleukin 31 in a biological specimen.", "preferredTerm": "Interleukin 31 Measurement", "submissionValue": "INTLK31", "synonyms": ["Interleukin 31"]}, {"conceptId": "C74830", "definition": "A measurement of the interleukin 32 in a biological specimen.", "preferredTerm": "Interleukin 32 Measurement", "submissionValue": "INTLK32", "synonyms": ["Interleukin 32"]}, {"conceptId": "C74831", "definition": "A measurement of the interleukin 33 in a biological specimen.", "preferredTerm": "Interleukin 33 Measurement", "submissionValue": "INTLK33", "synonyms": ["Interleukin 33"]}, {"conceptId": "C74832", "definition": "A measurement of the interleukin 4 in a biological specimen.", "preferredTerm": "Interleukin 4 Measurement", "submissionValue": "INTLK4", "synonyms": ["Interleukin 4"]}, {"conceptId": "C74833", "definition": "A measurement of the interleukin 5 in a biological specimen.", "preferredTerm": "Interleukin 5 Measurement", "submissionValue": "INTLK5", "synonyms": ["Interleukin 5"]}, {"conceptId": "C74834", "definition": "A measurement of the interleukin 6 in a biological specimen.", "preferredTerm": "Interleukin 6 Measurement", "submissionValue": "INTLK6", "synonyms": ["Interleukin 6"]}, {"conceptId": "C74835", "definition": "A measurement of the interleukin 7 in a biological specimen.", "preferredTerm": "Interleukin 7 Measurement", "submissionValue": "INTLK7", "synonyms": ["Interleukin 7"]}, {"conceptId": "C74836", "definition": "A measurement of the interleukin 8 in a biological specimen.", "preferredTerm": "Interleukin 8 Measurement", "submissionValue": "INTLK8", "synonyms": ["Interleukin 8"]}, {"conceptId": "C74837", "definition": "A measurement of the interleukin 9 in a biological specimen.", "preferredTerm": "Interleukin 9 Measurement", "submissionValue": "INTLK9", "synonyms": ["Interleukin 9"]}, {"conceptId": "C100439", "definition": "A measurement of the volume of serum or plasma that would be cleared of Iohexol through excretion for a specified unit of time.", "preferredTerm": "Iohexol Clearance", "submissionValue": "IOHEXCLR", "synonyms": ["Iohexol Clearance"]}, {"conceptId": "C98749", "definition": "A measurement of the volume of serum or plasma that would be cleared of iothalamate by excretion of urine for a specified unit of time (e.g. one minute).", "preferredTerm": "Iothalamate Clearance", "submissionValue": "IOTCLR", "synonyms": ["Iothalamate Clearance"]}, {"conceptId": "C98750", "definition": "A measurement of the volume of serum or plasma that would be cleared of iothalamate by excretion of urine for a specified unit of time (e.g. one minute), adjusted for body size.", "preferredTerm": "Iothalamate Clearance Adjusted for BSA", "submissionValue": "IOTCLRBS", "synonyms": ["Iothalamate Clearance Adjusted for BSA"]}, {"conceptId": "C102276", "definition": "A measurement of the immature reticulocyte fraction present in a biological specimen.", "preferredTerm": "Immature Reticulocyte Fraction Measurement", "submissionValue": "IRF", "synonyms": ["Immature Reticulocyte Fraction"]}, {"conceptId": "C74679", "definition": "A measurement of the iron in a biological specimen.", "preferredTerm": "Iron Measurement", "submissionValue": "IRON", "synonyms": ["FE", "Iron"]}, {"conceptId": "C117838", "definition": "A measurement of the amount of iron being excreted in urine over a defined amount of time (e.g. one hour).", "preferredTerm": "Iron Urine Excretion Rate", "submissionValue": "IRONEXR", "synonyms": ["Iron Excretion Rate"]}, {"conceptId": "C80180", "definition": "A measurement of the F2-isoprostane in a biological specimen.", "preferredTerm": "F2 Isoprostane Measurement", "submissionValue": "ISOPRF2", "synonyms": ["F2-Isoprostane"]}, {"conceptId": "C112326", "definition": "A measurement of the JC virus antibody in a biological specimen.", "preferredTerm": "JC Virus Antibody Measurement", "submissionValue": "JCVAB", "synonyms": ["JC Polyomavirus Antibody", "JC Virus Antibody", "JCV Antibody", "John Cunningham Virus Antibody"]}, {"conceptId": "C100459", "definition": "A measurement of the Jo-1 antibody in a biological specimen.", "preferredTerm": "Jo-1 Antibody Measurement", "submissionValue": "JO1AB", "synonyms": ["Jo-1 Antibody"]}, {"conceptId": "C64853", "definition": "A measurement of the potassium in a biological specimen.", "preferredTerm": "Potassium Measurement", "submissionValue": "K", "synonyms": ["Potassium"]}, {"conceptId": "C106560", "definition": "A measurement of the volume of serum or plasma that would be cleared of potassium by excretion of urine for a specified unit of time (e.g. one minute).", "preferredTerm": "Potassium Clearance Measurement", "submissionValue": "KCLR", "synonyms": ["Potassium Clearance"]}, {"conceptId": "C79462", "definition": "A relative measurement (ratio or percentage) of the potassium to creatinine in a biological specimen.", "preferredTerm": "Potassium to Creatinine Ratio Measurement", "submissionValue": "KCREAT", "synonyms": ["Potassium/Creatinine"]}, {"conceptId": "C111239", "definition": "A measurement of the ketone bodies (acetone, acetoacetic acid, beta-hydroxybutyric acid, beta-ketopentanoate and beta-hydroxypentanoate) in a biological specimen.", "preferredTerm": "Ketone Body Measurement", "submissionValue": "KETONEBD", "synonyms": ["Ketone Bodies"]}, {"conceptId": "C64854", "definition": "A measurement of the ketones in a biological specimen.", "preferredTerm": "Ketone Measurement", "submissionValue": "KETONES", "synonyms": ["Ketones"]}, {"conceptId": "C117839", "definition": "A measurement of the amount of potassium being excreted in urine over a defined amount of time (e.g. one hour).", "preferredTerm": "Potassium Urine Excretion Rate", "submissionValue": "KEXR", "synonyms": ["Potassium Excretion Rate"]}, {"conceptId": "C100433", "definition": "A measurement of the kidney injury molecule-1 (Kim-1) in a biological specimen.", "preferredTerm": "Kidney Injury Molecule-1 Measurement", "submissionValue": "KIM1", "synonyms": ["Hepatitis A Virus Cellular Receptor 1", "KIM-1", "Kidney Injury Molecule-1"]}, {"conceptId": "C98730", "definition": "A measurement of the free kappa light chain in a biological specimen.", "preferredTerm": "Free Kappa Light Chain Measurement", "submissionValue": "KLCFR", 