{"_links": {"parentPackage": {"href": "/mdr/ct/packages/sendct-2015-12-18", "title": "SEND Controlled Terminology Package 24 Effective 2015-12-18", "type": "Terminology"}, "priorVersion": {"href": "/mdr/ct/packages/sendct-2015-09-25/codelists/C89973", "title": "CDISC SEND Microscopic Findings Test Name Terminology", "type": "Code List"}, "rootItem": {"href": "/mdr/root/ct/sendct/codelists/C89973", "title": "Version-agnostic anchor resource for codelist C89973", "type": "Root Value Domain"}, "self": {"href": "/mdr/ct/packages/sendct-2015-12-18/codelists/C89973", "title": "CDISC SEND Microscopic Findings Test Name Terminology", "type": "Code List"}}, "conceptId": "C89973", "definition": "Terminology for the test names concerned with the findings from a specimen that are visible by microscopic analysis.", "extensible": "true", "name": "Microscopic Findings Test Name", "preferredTerm": "CDISC SEND Microscopic Findings Test Name Terminology", "submissionValue": "MITEST", "synonyms": ["Microscopic Findings Test Name"], "terms": [{"conceptId": "C119570", "definition": "The histopathological evaluation of the liver based on the Batts-Ludwig scoring system.", "preferredTerm": "Batts-Ludwig Fibrosis Score", "submissionValue": "Batts-Ludwig Fibrosis Score", "synonyms": ["Batts-Ludwig Fibrosis Score"]}, {"conceptId": "C123555", "definition": "A measurement of BRCA1 protein in a biological specimen.", "preferredTerm": "Breast Cancer Type 1 Susceptibility Protein Measurement", "submissionValue": "Breast Cancer Type 1 Susceptibility Prot", "synonyms": ["Breast Cancer Type 1 Susceptibility Prot"]}, {"conceptId": "C123556", "definition": "A relative measurement (ratio or percentage) of the neoplastic cells to total cells in a biological specimen.", "preferredTerm": "Cancer Cellularity Measurement", "submissionValue": "Cancer Cellularity", "synonyms": ["Cancer Cellularity"]}, {"conceptId": "C112274", "definition": "A measurement of estrogen receptor protein in a biological specimen.", "preferredTerm": "Estrogen Receptor Measurement", "submissionValue": "Estrogen Receptor", "synonyms": ["ER", "ESR", "Estrogen Receptor", "Oestrogen Receptor"]}, {"conceptId": "C112312", "definition": "A measurement of HER2 protein in a biological specimen.", "preferredTerm": "Human Epidermal Growth Factor Receptor 2 Measurement", "submissionValue": "Human Epidermal Growth Factor Receptor 2", "synonyms": ["ERBB2", "HER2/NEU", "Human Epidermal Growth Factor Receptor 2"]}, {"conceptId": "C95149", "definition": "The histopathological evaluation of the liver based on the Ishak scoring system.", "preferredTerm": "Ishak Score", "submissionValue": "Ishak Fibrosis Score", "synonyms": ["Ishak Fibrosis Score"]}, {"conceptId": "C123557", "definition": "A measurement of the Ki-67 protein in a biological specimen.", "preferredTerm": "Ki67 Measurement", "submissionValue": "Ki-67", "synonyms": ["Ki-67"]}, {"conceptId": "C119571", "definition": "The histopathological evaluation of the liver based on the Knodell scoring system.", "preferredTerm": "Knodell Fibrosis Score", "submissionValue": "Knodell Fibrosis Score", "synonyms": ["Knodell Fibrosis Score"]}, {"conceptId": "C119572", "definition": "The histopathological evaluation of the liver based on the Meta-analysis of Histological Data in Viral Hepatitis (Metavir) scoring system.", "preferredTerm": "METAVIR Fibrosis Score", "submissionValue": "Metavir Fibrosis Score", "synonyms": ["Metavir Fibrosis Score"]}, {"conceptId": "C90424", "definition": "An assessment by microscope (e.g., light, electron, confocal, etc.).", "preferredTerm": "Microscopic Examination", "submissionValue": "Microscopic Examination", "synonyms": ["Microscopic Examination"]}, {"conceptId": "C123558", "definition": "A measurement of NK2 homeobox 1 protein in a biological specimen.", "preferredTerm": "NK2 Homeobox 1 Measurement", "submissionValue": "NK2 Homeobox 1", "synonyms": ["NK2 Homeobox 1", "TEBP", "TTF1", "Thyroid Transcription Factor 1"]}, {"conceptId": "C123559", "definition": "A relative measurement (percentage) of in situ component present in a carcinoma compared to the entire malignant cellular proliferation. (NCI)", "preferredTerm": "Percentage of in situ Carcinoma", "submissionValue": "Percentage of In situ Carcinoma", "synonyms": ["Percentage of In situ Carcinoma"]}, {"conceptId": "C117846", "definition": "A measurement of the progesterone receptor protein in a biological specimen.", "preferredTerm": "Progesterone Receptor Measurement", "submissionValue": "Progesterone Receptor", "synonyms": ["NR3C3", "PR", "Progesterone Receptor"]}, {"conceptId": "C119573", "definition": "The histopathological evaluation of the liver based on the Scheuer scoring system.", "preferredTerm": "Scheuer Fibrosis Score", "submissionValue": "Scheuer Fibrosis Score", "synonyms": ["Scheuer Fibrosis Score"]}, {"conceptId": "C123560", "definition": "The determination of the presence of actual or potential neoplastic tissue which has been left outside the boundary of a resected specimen within the patient. (NCI)", "preferredTerm": "Surgical Margins Status", "submissionValue": "Surgical Margins Status", "synonyms": ["Surgical Margins Status"]}]}