{"_links": {"parentPackage": {"href": "/mdr/ct/packages/sendct-2015-12-18", "title": "SEND Controlled Terminology Package 24 Effective 2015-12-18", "type": "Terminology"}, "priorVersion": {"href": "/mdr/ct/packages/sendct-2015-09-25/codelists/C90006", "title": "CDISC SEND Tumor Findings Test Code Terminology", "type": "Code List"}, "rootItem": {"href": "/mdr/root/ct/sendct/codelists/C90006", "title": "Version-agnostic anchor resource for codelist C90006", "type": "Root Value Domain"}, "self": {"href": "/mdr/ct/packages/sendct-2015-12-18/codelists/C90006", "title": "CDISC SEND Tumor Findings Test Code Terminology", "type": "Code List"}}, "conceptId": "C90006", "definition": "Terminology for the test codes concerned with the assessment or evaluation of a neoplastic mass.", "extensible": "true", "name": "Tumor Findings Test Code", "preferredTerm": "CDISC SEND Tumor Findings Test Code Terminology", "submissionValue": "TFTESTCD", "synonyms": ["Tumor Findings Test Code"], "terms": [{"conceptId": "C90479", "definition": "An assessment or evaluation of a neoplastic mass. (NCI)", "preferredTerm": "Tumor Examination", "submissionValue": "TUMEX", "synonyms": ["Tumor Examination"]}]}