{"_links": {"parentPackage": {"href": "/mdr/ct/packages/sendct-2015-12-18", "title": "SEND Controlled Terminology Package 24 Effective 2015-12-18", "type": "Terminology"}, "priorVersion": {"href": "/mdr/ct/packages/sendct-2015-09-25/codelists/C99073", "title": "CDISC SDTM Laterality Terminology", "type": "Code List"}, "rootItem": {"href": "/mdr/root/ct/sendct/codelists/C99073", "title": "Version-agnostic anchor resource for codelist C99073", "type": "Root Value Domain"}, "self": {"href": "/mdr/ct/packages/sendct-2015-12-18/codelists/C99073", "title": "CDISC SDTM Laterality Terminology", "type": "Code List"}}, "conceptId": "C99073", "definition": "CDISC terminology for anatomical location or specimen further detailing the side(s) of interest.", "extensible": "true", "name": "Laterality", "preferredTerm": "CDISC SDTM Laterality Terminology", "submissionValue": "LAT", "synonyms": ["Laterality"], "terms": [{"conceptId": "C13332", "definition": "Affecting both sides of the body, or a pair of organs.", "preferredTerm": "Bilateral", "submissionValue": "BILATERAL"}, {"conceptId": "C25307", "definition": "Having to do with the opposite side of the body, in relation to a pre-existing reference point.", "preferredTerm": "Contralateral", "submissionValue": "CONTRALATERAL"}, {"conceptId": "C25308", "definition": "Having to do with the same side of the body, in relation to a pre-existing reference point.", "preferredTerm": "Ipsilateral", "submissionValue": "IPSILATERAL"}, {"conceptId": "C25230", "definition": "Situated at or extending to the side.", "preferredTerm": "Lateral", "submissionValue": "LATERAL"}, {"conceptId": "C25229", "definition": "Being or located on or directed toward the side of the body to the west when facing north.", "preferredTerm": "Left", "submissionValue": "LEFT"}, {"conceptId": "C25228", "definition": "Being or located on or directed toward the side of the body to the east when facing north.", "preferredTerm": "Right", "submissionValue": "RIGHT"}, {"conceptId": "C68598", "definition": "Affecting one side of the body or one of a pair of organs.", "preferredTerm": "Unilateral", "submissionValue": "UNILATERAL"}]}