{"_links": {"parentPackage": {"href": "/mdr/ct/packages/sdtmct-2014-09-26", "title": "SDTM Controlled Terminology Package 19 Effective 2014-09-26", "type": "Terminology"}, "rootItem": {"href": "/mdr/root/ct/sdtmct/codelists/C101863", "title": "Version-agnostic anchor resource for codelist C101863", "type": "Root Value Domain"}, "self": {"href": "/mdr/ct/packages/sdtmct-2014-09-26/codelists/C101863", "title": "CDISC SDTM Discharge Disposition Terminology", "type": "Code List"}}, "conceptId": "C101863", "definition": "The destination or circumstance at the time of discharge.", "extensible": "true", "name": "Discharge Disposition", "preferredTerm": "CDISC SDTM Discharge Disposition Terminology", "submissionValue": "DISCHDX", "synonyms": ["Discharge Disposition"], "terms": [{"conceptId": "C28554", "definition": "The absence of life or state of being dead. (NCI)", "preferredTerm": "Death", "submissionValue": "Expired", "synonyms": ["Died"]}, {"conceptId": "C99944", "definition": "The patient died while in a medical center such as a hospital, skilled nursing facility (SNF), intermediate care facility (ICF), or a freestanding hospice center.", "preferredTerm": "Died in a Medical Facility", "submissionValue": "Expired in a Medical Facility"}, {"conceptId": "C99909", "definition": "The patient will be admitted to a medical center that is funded by the federal government (e.g. Veterans Affairs Hospital).", "preferredTerm": "Federal Health Care Facility", "submissionValue": "Federal Health Care Facility"}, {"conceptId": "C99959", "definition": "The patient will return home but personal health maintenance will be administered and monitored by a member of a healthcare organization that is eligible to receive Medicare funding.", "preferredTerm": "Home Under Care of Organized Home Health Service Organization in Anticipation of Covered Skilled Care", "submissionValue": "Home Under Care of Organized Home Health Service Organization in Anticipation of Covered Skilled Care"}, {"conceptId": "C99958", "definition": "The patient will receive end-of-life care which will be administered in the patient's home.", "preferredTerm": "Home Hospice", "submissionValue": "Home, Hospice"}, {"conceptId": "C99957", "definition": "A routine discharge where personal health maintenance will be administered and monitored by the patient from their home.", "preferredTerm": "Home Care", "submissionValue": "Home, Self Care"}, {"conceptId": "C99910", "definition": "The patient will receive end-of-life care which will be administered in a medical center.", "preferredTerm": "Hospice Care at Medical Facility", "submissionValue": "Hospice - Medical Facility"}, {"conceptId": "C99960", "definition": "The patient will be admitted into a medical center and receive a type of hospital bed that will be paid for my Medicare.", "preferredTerm": "Hospital with Medicare Approved Swing Bed", "submissionValue": "Hospital-based Medicare-approved Swing Bed"}, {"conceptId": "C99911", "definition": "The patient will be admitted full time into a free standing rehabilitation center or a rehabilitation center within a general medical facility.", "preferredTerm": "Inpatient Rehabilitation Facility Including Rehabilitation distinct Part Units of a Hospital", "submissionValue": "Inpatient Rehabilitation Facility (IRF) Including Rehabilitation Distinct Part Units of a Hospital"}, {"conceptId": "C102247", "definition": "The patient will be admitted into an alternative facility not listed.", "preferredTerm": "Institution Not Defined", "submissionValue": "Institution Not Defined"}, {"conceptId": "C99912", "definition": "The patient will be admitted into a medical center that provides care 24 hours per day.", "preferredTerm": "Intermediate Care Facility", "submissionValue": "Intermediate Care Facility"}, {"conceptId": "C99969", "definition": "The patient vacated the medical center or ceased medical care contrary to the recommendation of a trained healthcare provider.", "preferredTerm": "Left Against Medical Advice", "submissionValue": "Left Against Medical Advice or Discontinued Care"}, {"conceptId": "C99984", "definition": "The patient will be admitted into a Medicare funded medical center for a considerable length of time.", "preferredTerm": "Medicare Certified Long Term Care Hospital", "submissionValue": "Medicare-certified Long Term Care Hospital (LTCH)"}, {"conceptId": "C99913", "definition": "The patient will be admitted into a medical center which is eligible to receive funding from Medicaid but not Medicare.", "preferredTerm": "Nursing Facility Certified Under Medicaid but Not Certified Under Medicare", "submissionValue": "Nursing Facility Certified Under Medicaid but Not Certified Under Medicare"}, {"conceptId": "C53536", "definition": "The patient will be admitted into a free standing medical facility or a unit within a general medical facility used for the treatment of mental health disorders.", "preferredTerm": "Psychiatric Facility", "submissionValue": "Psychiatric Hospital or a Psychiatric-distinct Part Unit of a Hospital"}, {"conceptId": "C102248", "definition": "The patient will remain in a basic hospital environment for a brief time.", "preferredTerm": "Short Term General Hospital", "submissionValue": "Short Term General Hospital"}, {"conceptId": "C99914", "definition": "The patient will be admitted into a medical center equipped with a trained nursing staff that is eligible to receive Medicare funding.", "preferredTerm": "Skilled Nursing Facility with Medicare Certification in Anticipation of Covered Skilled Care", "submissionValue": "Skilled Nursing Facility (SNF) with Medicare Certification in Anticipation of Covered Skilled Care"}]}