{"_links": {"parentPackage": {"href": "/mdr/ct/packages/sdtmct-2014-09-26", "title": "SDTM Controlled Terminology Package 19 Effective 2014-09-26", "type": "Terminology"}, "rootItem": {"href": "/mdr/root/ct/sdtmct/codelists/C101864", "title": "Version-agnostic anchor resource for codelist C101864", "type": "Root Value Domain"}, "self": {"href": "/mdr/ct/packages/sdtmct-2014-09-26/codelists/C101864", "title": "CDISC SDTM Reason Coronary Sinus Access or Left Ventricular Lead Not Implanted Terminology", "type": "Code List"}}, "conceptId": "C101864", "definition": "The reason that a Coronary Sinus Access or Left Ventricular (CS/LV) lead was not implanted.", "extensible": "false", "name": "Reason CS/LV Lead Not Implanted", "preferredTerm": "CDISC SDTM Reason Coronary Sinus Access or Left Ventricular Lead Not Implanted Terminology", "submissionValue": "CSLVLNIM", "synonyms": ["Reason CS/LV Lead Not Implanted"], "terms": [{"conceptId": "C100025", "definition": "The coronary sinus/left ventricular lead was not implanted because the operator was unable to obtain acceptable pacing thresholds.", "preferredTerm": "Unable to Obtain Acceptable Pacing Thresholds", "submissionValue": "Could Not Obtain Acceptable Pacing Thresholds"}, {"conceptId": "C99933", "definition": "The coronary sinus/left ventricular lead was not implanted because the lead position resulted in undesirable stimulation of the diaphragm.", "preferredTerm": "Cardiac Lead Position Results in Undesirable Stimulation of Diaphragm", "submissionValue": "Lead Position Results in Undesirable Stimulation of the Diaphragm"}, {"conceptId": "C100007", "definition": "The coronary sinus/left ventricular lead was not implanted because a lead had been previously implanted.", "preferredTerm": "Previously Implanted Cardiac Lead", "submissionValue": "Previously Implanted"}, {"conceptId": "C100026", "definition": "The coronary sinus/left ventricular lead was not implanted because the operator was unable to obtain satisfactory coronary sinus access.", "preferredTerm": "Unable to Obtain Satisfactory Coronary Sinus Access", "submissionValue": "Unable to Obtain Satisfactory Coronary Sinus Access"}, {"conceptId": "C100027", "definition": "The coronary sinus/left ventricular lead was not implanted because the operator was unable to obtain satisfactory vascular access.", "preferredTerm": "Unable to Obtain Satisfactory Vascular Access", "submissionValue": "Unable to Obtain Satisfactory Vascular Access"}, {"conceptId": "C100028", "definition": "The coronary sinus/left ventricular lead was not implanted because the coronary sinus was dissected.", "preferredTerm": "Unable to Position Lead Due to Coronary Sinus Dissection", "submissionValue": "Unable to Position Lead Due to Coronary Sinus Dissection"}, {"conceptId": "C100029", "definition": "The coronary sinus/left ventricular lead was not implanted because the operator was unable to position the lead in the tributary vein of the coronary sinus.", "preferredTerm": "Unable to Position Lead In tributary Vein of Coronary Sinus", "submissionValue": "Unable to Position Lead in Tributary Vein of Coronary Sinus"}]}