{"_links": {"parentPackage": {"href": "/mdr/ct/packages/sdtmct-2014-09-26", "title": "SDTM Controlled Terminology Package 19 Effective 2014-09-26", "type": "Terminology"}, "rootItem": {"href": "/mdr/root/ct/sdtmct/codelists/C101860", "title": "Version-agnostic anchor resource for codelist C101860", "type": "Root Value Domain"}, "self": {"href": "/mdr/ct/packages/sdtmct-2014-09-26/codelists/C101860", "title": "CDISC SDTM Coronary Artery Dominance Terminology", "type": "Code List"}}, "conceptId": "C101860", "definition": "A codelist to describe whether the posterior descending artery comes from the right or left vessel system.", "extensible": "false", "name": "Coronary Artery Dominance", "preferredTerm": "CDISC SDTM Coronary Artery Dominance Terminology", "submissionValue": "CARTDOM", "synonyms": ["Coronary Artery Dominance"], "terms": [{"conceptId": "C99941", "definition": "The right coronary artery supplies the posterior descending artery (PDA) and the circumflex supplies the posterolateral artery (PLA). Thus, there is approximately equal contribution to the inferior surface of the left ventricle from both the left circumflex and right coronary arteries.", "preferredTerm": "Co-Dominant Artery", "submissionValue": "CO-DOMINANT"}, {"conceptId": "C99971", "definition": "The posterior descending artery (PDA) and posterolateral artery (PLA) arises from the left circumflex artery.", "preferredTerm": "Left Cardiac Artery Dominance", "submissionValue": "LEFT DOMINANCE"}, {"conceptId": "C99942", "definition": "The posterior descending artery (PDA) and posterolateral artery (PLA) arises from the right coronary artery.", "preferredTerm": "Coronary Artery Right Dominance", "submissionValue": "RIGHT DOMINANCE"}]}