{"_links": {"parentPackage": {"href": "/mdr/ct/packages/sdtmct-2014-09-26", "title": "SDTM Controlled Terminology Package 19 Effective 2014-09-26", "type": "Terminology"}, "rootItem": {"href": "/mdr/root/ct/sdtmct/codelists/C101847", "title": "Version-agnostic anchor resource for codelist C101847", "type": "Root Value Domain"}, "self": {"href": "/mdr/ct/packages/sdtmct-2014-09-26/codelists/C101847", "title": "CDISC SDTM Cardiovascular Test Code Terminology", "type": "Code List"}}, "conceptId": "C101847", "definition": "A terminology codelist to describe the findings test code from a cardiac examination.", "extensible": "true", "name": "Cardiovascular Test Code", "preferredTerm": "CDISC SDTM Cardiovascular Test Code Terminology", "submissionValue": "CVEXAMCD", "synonyms": ["Cardiovascular Test Code"], "terms": [{"conceptId": "C100086", "definition": "The contribution of blood supply from the right or left vessel system to the posterior descending artery. (ACC)", "preferredTerm": "Coronary Artery Dominance", "submissionValue": "COARTDOM", "synonyms": ["Coronary Anatomy Dominance", "Coronary Artery Dominance"]}, {"conceptId": "C102244", "definition": "The qualitative measurement of the severity of cardiac valvular regurgitation.", "preferredTerm": "Cardiac Valvular Regurgitation Severity", "submissionValue": "CVLREGTS", "synonyms": ["Cardiac Valvular Regurgitation Severity"]}, {"conceptId": "C102245", "definition": "The qualitative measurement of the severity of cardiac valvular stenosis.", "preferredTerm": "Cardiac Valvular Stenosis Severity", "submissionValue": "CVLSTNS", "synonyms": ["Cardiac Valvular Stenosis Severity"]}, {"conceptId": "C80494", "definition": "The percentage of myocardial tissue which exhibits characteristics of inadequate blood flow (ischemia).", "preferredTerm": "Ischemic Myocardium Percentage", "submissionValue": "ISHMYOP", "synonyms": ["Ischemic Myocardium Percentage"]}, {"conceptId": "C99970", "definition": "The diameter across the left atrium measured at the end of systole.", "preferredTerm": "Left Atrium Dimension", "submissionValue": "LADMN", "synonyms": ["Left Atrium Dimension"]}, {"conceptId": "C99976", "definition": "The diameter across the ventricle at the end of diastole, excluding the thickness of the walls.", "preferredTerm": "Left Ventricle Dimension at End-Diastole", "submissionValue": "LVDMNED", "synonyms": ["Left Ventricle Dimension, End-Diastole"]}, {"conceptId": "C99977", "definition": "The diameter across the ventricle at the end of systole, excluding the thickness of the walls.", "preferredTerm": "Left Ventricular Dimension at End-Systole", "submissionValue": "LVDMNES", "synonyms": ["Left Ventricular Dimension, End-Systole"]}, {"conceptId": "C99524", "definition": "The percent or fraction of the left ventricular end diastolic volume ejected in systole. The left ventricular ejection fraction is equal to the left ventricular stroke volume divided by the left ventricular end diastolic volume.", "preferredTerm": "Left Ventricular Ejection Fraction", "submissionValue": "LVEF", "synonyms": ["Left Ventricular Ejection Fraction"]}, {"conceptId": "C99996", "definition": "Number of major epicardial vessels with greater than or equal to 70% reduction in diameter or greater than or equal to 50% reduction in cross-sectional area.", "preferredTerm": "Number of Diseased Coronary Artery Vessels", "submissionValue": "NUMDCAV", "synonyms": ["Number of Diseased Coronary Vessels"]}]}