{"_links": {"parentPackage": {"href": "/mdr/ct/packages/sdtmct-2014-09-26", "title": "SDTM Controlled Terminology Package 19 Effective 2014-09-26", "type": "Terminology"}, "rootItem": {"href": "/mdr/root/ct/sdtmct/codelists/C101850", "title": "Version-agnostic anchor resource for codelist C101850", "type": "Root Value Domain"}, "self": {"href": "/mdr/ct/packages/sdtmct-2014-09-26/codelists/C101850", "title": "CDISC SDTM Coronary Vessel Disease Extent Terminology", "type": "Code List"}}, "conceptId": "C101850", "definition": "A terminology codelist to describe the extent of coronary artery disease.", "extensible": "false", "name": "Coronary Vessel Disease Extent", "preferredTerm": "CDISC SDTM Coronary Vessel Disease Extent Terminology", "submissionValue": "CVSLDEXT", "synonyms": ["Coronary Vessel Disease Extent"], "terms": [{"conceptId": "C48658", "definition": "Cannot distinguish between two or more possible values in the current context. (NCI)", "preferredTerm": "Indeterminate", "submissionValue": "INDETERMINATE", "synonyms": ["Inconclusive"]}, {"conceptId": "C99993", "definition": "There was less than 50% stenosis (reduction in cross-sectional area) in all coronary artery branches.", "preferredTerm": "No Evidence of Coronary Artery Disease", "submissionValue": "NO DISEASE"}, {"conceptId": "C99997", "definition": "There was greater than or equal to 50% stenosis (reduction in cross-sectional area) in one coronary artery.", "preferredTerm": "One Coronary Vessel Disease", "submissionValue": "ONE VESSEL DISEASE"}, {"conceptId": "C100020", "definition": "There was greater than or equal to 50% stenosis (reduction in cross-sectional area) in three coronary arteries (or greater than or equal to 50% stenosis in the left main coronary artery and greater than or equal to 50% stenosis in the right coronary artery).", "preferredTerm": "Three Vessel Coronary Disease", "submissionValue": "THREE VESSEL DISEASE"}, {"conceptId": "C100023", "definition": "There was greater than or equal to 50% stenosis (reduction in cross-sectional area) in two coronary arteries (or greater than or equal to 50% stenosis in the left main coronary artery).", "preferredTerm": "Two Vessel Coronary Disease", "submissionValue": "TWO VESSEL DISEASE"}, {"conceptId": "C17998", "definition": "Not known, not observed, not recorded, or refused. (NCI)", "preferredTerm": "Unknown", "submissionValue": "UNKNOWN", "synonyms": ["U", "Unknown"]}]}