{"_links": {"parentPackage": {"href": "/mdr/ct/packages/sdtmct-2014-09-26", "title": "SDTM Controlled Terminology Package 19 Effective 2014-09-26", "type": "Terminology"}, "rootItem": {"href": "/mdr/root/ct/sdtmct/codelists/C102575", "title": "Version-agnostic anchor resource for codelist C102575", "type": "Root Value Domain"}, "self": {"href": "/mdr/ct/packages/sdtmct-2014-09-26/codelists/C102575", "title": "CDISC SDTM Contact Case Investigation Contact Type Terminology", "type": "Code List"}}, "conceptId": "C102575", "definition": "Terminology relevant to the identification and clinical investigation of disease contacts.", "extensible": "true", "name": "Contact Case Investigation Contact Type", "preferredTerm": "CDISC SDTM Contact Case Investigation Contact Type Terminology", "submissionValue": "CCINVTYP", "synonyms": ["Contact Case Investigation Contact Type"], "terms": [{"conceptId": "C102606", "definition": "A way of contracting a disease through everyday interactions (nonsexual) with an infected person.", "preferredTerm": "Casual Contact", "submissionValue": "CASUAL CONTACT"}, {"conceptId": "C102609", "definition": "A way of contracting a disease by interacting with an individual that has been exposed to the disease while undergoing a medical procedure.", "preferredTerm": "Contact With Exposure During Medical Procedure", "submissionValue": "CONTACT WITH EXPOSURE DURING MEDICAL PROCEDURE"}, {"conceptId": "C102610", "definition": "A way of contracting a disease by physically associating with an infected group of individuals.", "preferredTerm": "Contact With Exposure In Crowd Setting", "submissionValue": "CONTACT WITH EXPOSURE IN CROWD SETTING"}, {"conceptId": "C102611", "definition": "A way of contracting a disease by interacting with an individual that is considered at high risk for having the disease.", "preferredTerm": "Contact With Medical Risk Factor", "submissionValue": "CONTACT WITH MEDICAL RISK FACTOR"}, {"conceptId": "C102646", "definition": "A way of contracting a disease through interactions with an infected person in the same residence.", "preferredTerm": "Household Contact", "submissionValue": "HOUSEHOLD CONTACT"}]}