{"_links": {"parentPackage": {"href": "/mdr/ct/packages/sdtmct-2014-09-26", "title": "SDTM Controlled Terminology Package 19 Effective 2014-09-26", "type": "Terminology"}, "rootItem": {"href": "/mdr/root/ct/sdtmct/codelists/C102588", "title": "Version-agnostic anchor resource for codelist C102588", "type": "Root Value Domain"}, "self": {"href": "/mdr/ct/packages/sdtmct-2014-09-26/codelists/C102588", "title": "CDISC SDTM Contact Setting Terminology", "type": "Code List"}}, "conceptId": "C102588", "definition": "Terminology relevant to the environment within which the subject may have come into contact with a disease carrier, or played the role of a disease carrier.", "extensible": "true", "name": "Contact Setting", "preferredTerm": "CDISC SDTM Contact Setting Terminology", "submissionValue": "SETCON", "synonyms": ["Contact Setting"], "terms": [{"conceptId": "C48953", "definition": "A tract of land cultivated for the purpose of agricultural production or devoted to the raising and breeding of domestic animals.", "preferredTerm": "Farm", "submissionValue": "FARM"}, {"conceptId": "C102647", "definition": "The area in which an individual lives.", "preferredTerm": "Household Environment", "submissionValue": "HOUSEHOLD ENVIRONMENT"}, {"conceptId": "C102679", "definition": "An area outside of that in which an individual lives.", "preferredTerm": "Non-household Environment", "submissionValue": "NON-HOUSEHOLD ENVIRONMENT"}, {"conceptId": "C85862", "definition": "An institution where persons are confined for punishment and to protect the public.", "preferredTerm": "Correctional Institution", "submissionValue": "PRISON"}, {"conceptId": "C17118", "definition": "An educational institution.", "preferredTerm": "School", "submissionValue": "SCHOOL"}, {"conceptId": "C102712", "definition": "The surroundings or environment in which social activities occur.", "preferredTerm": "Social Setting", "submissionValue": "SOCIAL SETTING"}, {"conceptId": "C17556", "definition": "Place or physical location of work or employment.", "preferredTerm": "Worksite", "submissionValue": "WORKSITE"}]}