{"_links": {"parentPackage": {"href": "/mdr/ct/packages/sdtmct-2014-09-26", "title": "SDTM Controlled Terminology Package 19 Effective 2014-09-26", "type": "Terminology"}, "rootItem": {"href": "/mdr/root/ct/sdtmct/codelists/C111106", "title": "Version-agnostic anchor resource for codelist C111106", "type": "Root Value Domain"}, "self": {"href": "/mdr/ct/packages/sdtmct-2014-09-26/codelists/C111106", "title": "CDISC SDTM Respiratory Test Code Terminology", "type": "Code List"}}, "conceptId": "C111106", "definition": "A terminology codelist based on the test codes for physiological findings related to the respiratory system, including the organs that are involved in breathing such as the nose, throat, larynx, trachea, bronchi and lungs.", "extensible": "true", "name": "Respiratory Test Code", "preferredTerm": "CDISC SDTM Respiratory Test Code Terminology", "submissionValue": "RETESTCD", "synonyms": ["Respiratory Test Code"], "terms": [{"conceptId": "C111200", "definition": "The maximum volume of air a subject can exhale from the lungs after a tidal exhalation.", "preferredTerm": "Expiratory Reserve Volume", "submissionValue": "ERV", "synonyms": ["Expiratory Reserve Volume"]}, {"conceptId": "C112375", "definition": "The maximum volume of air a subject can exhale from the lungs after a tidal exhalation as a proportion of the predicted normal value.", "preferredTerm": "Percent Predicted Expiratory Reserve Volume", "submissionValue": "ERVPP", "synonyms": ["Percent Predicted ERV"]}, {"conceptId": "C38084", "definition": "The volume of air that a subject can breathe out during the first second of exhalation after maximum inhalation.", "preferredTerm": "Forced Expiratory Volume in 1 Second", "submissionValue": "FEV1", "synonyms": ["Forced Expiratory Volume in 1 Second"]}, {"conceptId": "C111359", "definition": "The proportion of total forced vital capacity that is expelled during the first second of a forced exhalation.", "preferredTerm": "Forced Expiratory Volume in 1 Second to Forced Vital Capacity Ratio Measurement", "submissionValue": "FEV1FVC", "synonyms": ["FEV1/FVC"]}, {"conceptId": "C112377", "definition": "The proportion of total forced vital capacity that is expelled during the first second of a forced exhalation as a proportion of the predicted normal value.", "preferredTerm": "Percent Predicted Forced Expiratory Volume in 1 Second Divided by Forced Vital Capacity", "submissionValue": "FEV1FVCP", "synonyms": ["Percent Predicted FEV1/FVC"]}, {"conceptId": "C112376", "definition": "Forced expiratory volume in one second as a proportion of the predicted normal value.", "preferredTerm": "Percent Predicted Forced Expiratory Volume in 1 Second", "submissionValue": "FEV1PP", "synonyms": ["Percent Predicted FEV1"]}, {"conceptId": "C112285", "definition": "The change in FEV1 following administration of a bronchodilator relative to the pre-treatment FEV1 value.", "preferredTerm": "Forced Expiratory Volume in 1 Second Reversibility", "submissionValue": "FEV1REV", "synonyms": ["FEV1 Reversibility"]}, {"conceptId": "C47843", "definition": "The volume of air that a subject can breathe out during the first 6 seconds of exhalation after maximum inhalation.", "preferredTerm": "Forced Expiratory Volume in 6 Seconds", "submissionValue": "FEV6", "synonyms": ["Forced Expiratory Volume in 6 Seconds"]}, {"conceptId": "C112378", "definition": "Forced expiratory volume in six seconds as a proportion of the predicted normal value.", "preferredTerm": "Percent Predicted Forced Expiratory Volume in 6 Seconds", "submissionValue": "FEV6PP", "synonyms": ["Percent Predicted FEV6"]}, {"conceptId": "C112333", "definition": "Forced inspiratory flow for a portion of the FVC curve at the point where the maximum portion of FVC is already inhaled.", "preferredTerm": "Maximum Forced Inspiratory Flow", "submissionValue": "FIFMAX", "synonyms": ["Maximum Forced Inspiratory Flow"]}, {"conceptId": "C112379", "definition": "Forced inspiratory flow for a portion of the FVC curve at the point where the maximum portion of FVC is already inhaled as a proportion of the predicted normal value.", "preferredTerm": "Percent Predicted Forced Inspiratory Flow Maximum", "submissionValue": "FIFMAXPP", "synonyms": ["Percent Predicted FIFmax"]}, {"conceptId": "C111360", "definition": "The volume of air that a subject can breathe in during the first second of inhalation after maximum exhalation.", "preferredTerm": "Forced Inspiratory Volume in 1 Second", "submissionValue": "FIV1", "synonyms": ["Forced Inspiratory Volume in 1 Second"]}, {"conceptId": "C112380", "definition": "The volume of air that a subject can breathe in during the first second of inhalation after maximum exhalation as a proportion of the predicted normal value.", "preferredTerm": "Percent Predicted Forced Inspiratory Volume in 1 Second", "submissionValue": "FIV1PP", "synonyms": ["Percent Predicted FIV1"]}, {"conceptId": "C111361", "definition": "The maximum volume of air that can be exhaled after forced maximum inhalation.", "preferredTerm": "Forced Vital Capacity", "submissionValue": "FVC", "synonyms": ["Forced Vital Capacity"]}, {"conceptId": "C112381", "definition": "Forced vital capacity as a proportion of the predicted normal value.", "preferredTerm": "Percent Predicted Forced Vital Capacity", "submissionValue": "FVCPP", "synonyms": ["Percent Predicted Forced Vital Capacity"]}, {"conceptId": "C111362", "definition": "The maximum volume of air a subject can inhale into the lungs after a tidal exhalation (IRV plus TV).", "preferredTerm": "Inspiratory Capacity", "submissionValue": "IC", "synonyms": ["Inspiratory Capacity"]}, {"conceptId": "C112382", "definition": "The maximum volume of air a subject can inhale into the lungs after a tidal exhalation (IRV plus TV) as a proportion of the predicted normal value.", "preferredTerm": "Percent Predicted Inspiratory Capacity", "submissionValue": "ICPP", "synonyms": ["Percent Predicted Inspiratory Capacity"]}, {"conceptId": "C112321", "definition": "The change in IC following administration of a bronchodilator relative to the pre-treatment IC value.", "preferredTerm": "Inspiratory Capacity Reversibility", "submissionValue": "ICREV", "synonyms": ["IC Reversibility"]}, {"conceptId": "C111237", "definition": "The maximum volume of air a subject can inhale into the lungs after a tidal inhalation.", "preferredTerm": "Inspiratory Reserve Volume", "submissionValue": "IRV", "synonyms": ["Inspiratory Reserve Volume"]}, {"conceptId": "C112383", "definition": "The maximum volume of air a subject can inhale into the lungs after a tidal inhalation as a proportion of the predicted normal value.", "preferredTerm": "Percent Predicted Inspiratory Reserve Volume", "submissionValue": "IRVPP", "synonyms": ["Percent Predicted IRV"]}, {"conceptId": "C41372", "definition": "The maximal flow achieved during the maximally forced expiration initiated at maximum inhalation.", "preferredTerm": "Peak Expiratory Flow", "submissionValue": "PEF", "synonyms": ["Peak Expiratory Flow"]}, {"conceptId": "C112384", "definition": "The maximal flow achieved during the maximally forced expiration initiated at maximum inhalation as a proportion of the predicted normal value.", "preferredTerm": "Percent Predicted Peak Expiratory Flow", "submissionValue": "PEFPP", "synonyms": ["Percent Predicted Peak Expiratory Flow"]}, {"conceptId": "C112368", "definition": "The change in PEF following administration of a bronchodilator relative to the pre-treatment PEF value.", "preferredTerm": "Peak Expiratory Flow Reversibility", "submissionValue": "PEFREV", "synonyms": ["PEF Reversibility"]}, {"conceptId": "C89836", "definition": "The volume of air remaining in the lungs after maximum exhalation.", "preferredTerm": "Residual Volume", "submissionValue": "RV", "synonyms": ["Residual Volume"]}, {"conceptId": "C112385", "definition": "The volume of air remaining in the lungs after maximum exhalation as a proportion of the predicted normal value.", "preferredTerm": "Percent Predicted Residual Volume", "submissionValue": "RVPP", "synonyms": ["Percent Predicted Residual Volume"]}, {"conceptId": "C111315", "definition": "The maximum volume of air that can be exhaled after slow maximum inhalation.", "preferredTerm": "Slow Vital Capacity", "submissionValue": "SVC", "synonyms": ["Slow Vital Capacity"]}, {"conceptId": "C112386", "definition": "The maximum volume of air that can be exhaled after slow maximum inhalation as a proportion of the predicted normal value.", "preferredTerm": "Percent Predicted Slow Vital Capacity", "submissionValue": "SVCPP", "synonyms": ["Percent Predicted Slow Vital Capacity"]}, {"conceptId": "C111325", "definition": "The total volume of air in the lungs after maximum inhalation.", "preferredTerm": "Total Lung Capacity", "submissionValue": "TLC", "synonyms": ["Total Lung Capacity"]}, {"conceptId": "C112388", "definition": "The total volume of air in the lungs after maximum inhalation as a proportion of the predicted normal value.", "preferredTerm": "Percent Predicted Total Lung Capacity", "submissionValue": "TLCPP", "synonyms": ["Percent Predicted Total Lung Capacity"]}, {"conceptId": "C111324", "definition": "The volume of air moved into and out of the lungs during breathing at rest.", "preferredTerm": "Tidal Volume", "submissionValue": "TV", "synonyms": ["Tidal Volume"]}, {"conceptId": "C112387", "definition": "The volume of air moved into and out of the lungs during breathing at rest as a proportion of the predicted normal value.", "preferredTerm": "Percent Predicted Tidal Volume", "submissionValue": "TVPP", "synonyms": ["Percent Predicted Tidal Volume"]}]}