{"_links": {"parentPackage": {"href": "/mdr/ct/packages/sdtmct-2014-09-26", "title": "SDTM Controlled Terminology Package 19 Effective 2014-09-26", "type": "Terminology"}, "rootItem": {"href": "/mdr/root/ct/sdtmct/codelists/C112024", "title": "Version-agnostic anchor resource for codelist C112024", "type": "Root Value Domain"}, "self": {"href": "/mdr/ct/packages/sdtmct-2014-09-26/codelists/C112024", "title": "CDISC SDTM Skin Response Test Code Terminology", "type": "Code List"}}, "conceptId": "C112024", "definition": "A terminology codelist based on the test codes for dermal responses to antigens.", "extensible": "true", "name": "Skin Response Test Code", "preferredTerm": "CDISC SDTM Skin Response Test Code Terminology", "submissionValue": "SRTESTCD", "synonyms": ["Skin Response Test Code"], "terms": [{"conceptId": "C112221", "definition": "A relative measurement (ratio or percentage) of the allergen wheal size to the positive control wheal size in an allergen skin test.", "preferredTerm": "Allergen Skin Response Index", "submissionValue": "ASRINDEX", "synonyms": ["Allergen Skin Response Index"]}, {"conceptId": "C112222", "definition": "A semi-quantitative assessment of the intensity of the wheal and flare reaction.", "preferredTerm": "Allergen Skin Response Intensity", "submissionValue": "ASRINT", "synonyms": ["Allergen Skin Response Intensity"]}, {"conceptId": "C112283", "definition": "The size of the area of redness that forms around the site of an antigenic challenge to the skin.", "preferredTerm": "Flare Size", "submissionValue": "FLARESZ", "synonyms": ["Flare Size"]}, {"conceptId": "C112281", "definition": "The longest diameter of the area of redness that forms around the site of an antigenic challenge to the skin.", "preferredTerm": "Flare Longest Diameter", "submissionValue": "FLRLDIAM", "synonyms": ["Flare Longest Diameter"]}, {"conceptId": "C112282", "definition": "The mean diameter of the area of redness that forms around the site of an antigenic challenge to the skin.", "preferredTerm": "Flare Mean Diameter", "submissionValue": "FLRMDIAM", "synonyms": ["Flare Mean Diameter"]}, {"conceptId": "C112429", "definition": "A semi-quantitative size assessment of the flat, circular, slightly raised area that forms around the site of an antigenic challenge to the skin.", "preferredTerm": "Wheal Size", "submissionValue": "WHEALSZ", "synonyms": ["Wheal Size"]}, {"conceptId": "C112427", "definition": "The longest diameter of the flat, circular, slightly raised area that forms around the site of an antigenic challenge to the skin.", "preferredTerm": "Wheal Longest Diameter", "submissionValue": "WHLLDIAM", "synonyms": ["Wheal Longest Diameter"]}, {"conceptId": "C112428", "definition": "The mean diameter of the flat, circular, slightly raised area that forms around the site of an antigenic challenge to the skin.", "preferredTerm": "Wheal Mean Diameter", "submissionValue": "WHLMDIAM", "synonyms": ["Wheal Mean Diameter"]}]}