{"_links": {"parentPackage": {"href": "/mdr/ct/packages/sdtmct-2014-09-26", "title": "SDTM Controlled Terminology Package 19 Effective 2014-09-26", "type": "Terminology"}, "rootItem": {"href": "/mdr/root/ct/sdtmct/codelists/C117738", "title": "Version-agnostic anchor resource for codelist C117738", "type": "Root Value Domain"}, "self": {"href": "/mdr/ct/packages/sdtmct-2014-09-26/codelists/C117738", "title": "CDISC SDTM Hepatic Findings About Test Name Terminology", "type": "Code List"}}, "conceptId": "C117738", "definition": "Terminology relevant to the test names that describe hepatic findings.", "extensible": "true", "name": "Hepatic Findings About Test Name", "preferredTerm": "CDISC SDTM Hepatic Findings About Test Name Terminology", "submissionValue": "HEFATEST", "synonyms": ["Hepatic Findings About Test Name"], "terms": [{"conceptId": "C117747", "definition": "A grading system to describe the severity of hepatic encephalopathy based on the level of mental status, per the West Haven Criteria. (NCI)", "preferredTerm": "West Haven Hepatic Encephalopathy Grade", "submissionValue": "West Haven Hepatic Encephalopathy Grade", "synonyms": ["West Haven Hepatic Encephalopathy Grade"]}]}