{"_links": {"parentPackage": {"href": "/mdr/ct/packages/sdtmct-2014-09-26", "title": "SDTM Controlled Terminology Package 19 Effective 2014-09-26", "type": "Terminology"}, "rootItem": {"href": "/mdr/root/ct/sdtmct/codelists/C117739", "title": "Version-agnostic anchor resource for codelist C117739", "type": "Root Value Domain"}, "self": {"href": "/mdr/ct/packages/sdtmct-2014-09-26/codelists/C117739", "title": "CDISC SDTM Hepatic Findings About Test Code Terminology", "type": "Code List"}}, "conceptId": "C117739", "definition": "Terminology relevant to the test codes that describe hepatic findings.", "extensible": "true", "name": "Hepatic Findings About Test Code", "preferredTerm": "CDISC SDTM Hepatic Findings About Test Code Terminology", "submissionValue": "HEFATESTCD", "synonyms": ["Hepatic Findings About Test Code"], "terms": [{"conceptId": "C117747", "definition": "A grading system to describe the severity of hepatic encephalopathy based on the level of mental status, per the West Haven Criteria. (NCI)", "preferredTerm": "West Haven Hepatic Encephalopathy Grade", "submissionValue": "WHHEGR", "synonyms": ["West Haven Hepatic Encephalopathy Grade"]}]}