{"_links": {"parentPackage": {"href": "/mdr/ct/packages/sdtmct-2014-09-26", "title": "SDTM Controlled Terminology Package 19 Effective 2014-09-26", "type": "Terminology"}, "rootItem": {"href": "/mdr/root/ct/sdtmct/codelists/C66784", "title": "Version-agnostic anchor resource for codelist C66784", "type": "Root Value Domain"}, "self": {"href": "/mdr/ct/packages/sdtmct-2014-09-26/codelists/C66784", "title": "CDISC SDTM Common Terminology Criteria for Adverse Event Grade Terminology V3.0", "type": "Code List"}}, "conceptId": "C66784", "definition": "A standard terminology developed to report adverse events occurring in cancer clinical trials. Common terminology criteria for adverse events (CTCAE) are used in study adverse event summaries and Investigational New Drug reports to the Food and Drug Administration. The CTCAE contain a grading scale for each adverse event term representing the severity of the event. (NCI)", "extensible": "false", "name": "Common Terminology Criteria for Adverse Events V3.0", "preferredTerm": "CDISC SDTM Common Terminology Criteria for Adverse Event Grade Terminology V3.0", "submissionValue": "TOXGRV3", "synonyms": ["Common Terminology Criteria for Adverse Events V3.0"], "terms": [{"conceptId": "C41338", "definition": "A type of adverse event that is usually transient and may require only minimal treatment or therapeutic intervention. The event does not generally interfere with usual activities of daily living.", "preferredTerm": "Mild Adverse Event", "submissionValue": "1", "synonyms": ["1", "Grade 1"]}, {"conceptId": "C41339", "definition": "A type of adverse event that is usually alleviated with additional specific therapeutic intervention. The event interferes with usual activities of daily living, causing discomfort but poses no significant or permanent risk of harm to the research participant.", "preferredTerm": "Moderate Adverse Event", "submissionValue": "2", "synonyms": ["2", "Grade 2"]}, {"conceptId": "C41340", "definition": "A type of adverse event that interrupts usual activities of daily living, or significantly affects clinical status, or may require intensive therapeutic intervention.", "preferredTerm": "Severe Adverse Event", "submissionValue": "3", "synonyms": ["3", "Grade 3"]}, {"conceptId": "C41337", "definition": "An adverse event, and/or its immediate sequelae, which is associated with an imminent risk of death or which is associated with physical or mental disabilities that affect or limit the ability of a person to perform activities of daily living (eating, ambulation, toileting, etc.) See NCI Common Terminology Criteria for Adverse Events.", "preferredTerm": "Life Threatening or Disabling Adverse Event", "submissionValue": "4", "synonyms": ["4", "Grade 4", "LIFE THREATENING"]}, {"conceptId": "C48275", "definition": "The termination of life as a result of an adverse event. (NCI)", "preferredTerm": "Death Related to Adverse Event", "submissionValue": "5", "synonyms": ["5", "FATAL", "Grade 5"]}]}