{"_links": {"parentPackage": {"href": "/mdr/ct/packages/sdtmct-2014-09-26", "title": "SDTM Controlled Terminology Package 19 Effective 2014-09-26", "type": "Terminology"}, "rootItem": {"href": "/mdr/root/ct/sdtmct/codelists/C85492", "title": "Version-agnostic anchor resource for codelist C85492", "type": "Root Value Domain"}, "self": {"href": "/mdr/ct/packages/sdtmct-2014-09-26/codelists/C85492", "title": "CDISC SDTM Method Terminology", "type": "Code List"}}, "conceptId": "C85492", "definition": "Method is any technique or procedure (an action) that determines how an observation or clinical finding was made.", "extensible": "true", "name": "Method", "preferredTerm": "CDISC SDTM Method Terminology", "submissionValue": "METHOD", "synonyms": ["Method"], "terms": [{"conceptId": "C23015", "definition": "A microscopy staining method used to examine a specimen for the presence of acid-fast microorganisms, specifically mycobacteria.", "preferredTerm": "Acid Fast Bacillae Staining Method", "submissionValue": "ACID FAST STAIN"}, {"conceptId": "C85554", "definition": "A microscopy staining method that utilizes acridine orange, a fluorescent cationic dye that is selective for nucleic acids, to determine the presence of viable cells or microorganisms in a sample. Acridine orange interacts with RNA and DNA and the lysosomal compartment of cells.", "preferredTerm": "Acridine Orange Staining Method", "submissionValue": "ACRIDINE ORANGE STAIN"}, {"conceptId": "C85555", "definition": "A method to determine microbial susceptibility to antibiotics in which test bacteria is inoculated onto agar plates with serial dilutions of know quantities of antibiotics. The minimum inhibitory concentration of antibiotic is assessed.", "preferredTerm": "Agar Dilution Method", "submissionValue": "AGAR DILUTION"}, {"conceptId": "C92304", "definition": "A microscopy staining method that utilizes periodic acid, an oxoacid of iodine, Schiff reagent, the reaction product of fuchsine and sodium bisulfite, and Alcian blue, a water soluble copper phthalocyanine dye. This staining method is used to differentially stain glycoproteins.", "preferredTerm": "Alcian Blue and Periodic Acid Schiff Staining Method", "submissionValue": "ALCIAN BLUE AND PERIODIC ACID SCHIFF STAIN"}, {"conceptId": "C92299", "definition": "A microscopy staining method that utilizes alcian blue, a cationic, water soluble copper-containing phthalocyanine dye to determine the presence of acid mucopolysaccharides and glycosaminoglycans.", "preferredTerm": "Alcian Blue Staining Method", "submissionValue": "ALCIAN BLUE STAIN"}, {"conceptId": "C16290", "definition": "An image of blood vessels.", "preferredTerm": "Angiogram", "submissionValue": "ANGIOGRAM"}, {"conceptId": "C20080", "definition": "A method used to create an image of blood vessels.", "preferredTerm": "Angiography", "submissionValue": "ANGIOGRAPHY"}, {"conceptId": "C85557", "definition": "A method used to detect organisms that have resistance to a single concentration of antibiotics in an agar matrix.", "preferredTerm": "Antibiotic Agar Screening Method", "submissionValue": "ANTIBIOTIC AGAR SCREEN"}, {"conceptId": "C85558", "definition": "A method to determine the microbial susceptibility to two or more antibiotics. Numerical result translated into indifference, antagonism, synergism, or additive.", "preferredTerm": "Antimicrobial Combination Testing Method", "submissionValue": "ANTIMICROBIAL COMBINATION TESTING"}, {"conceptId": "C85574", "definition": "A spectrometric method that determines the type and concentration of metal elements in a sample, based upon the principle that each elemental metal absorbs a particular wavelength of ultraviolet light when exposed to heat.", "preferredTerm": "Atomic Absorption Spectroscopy", "submissionValue": "ATOMIC ABSORPTION SPECTROMETRY"}, {"conceptId": "C38036", "definition": "Testing conducted utilizing a manual or microprocessor audiometer to test for hearing loss.", "preferredTerm": "Audiometric Test", "submissionValue": "AUDIOMETRY"}, {"conceptId": "C102599", "definition": "A microscopy acid fast staining method that utilizes auramine O, a bright yellow ketonimine dye, which binds to the mycolic acid in the cell walls of acid fast microorganisms.", "preferredTerm": "Auramine Staining Method", "submissionValue": "AURAMINE STAIN", "synonyms": ["Auramine O"]}, {"conceptId": "C85573", "definition": "Listening with a device, such as a stethoscope, to anatomical locations that produce audible sounds like the heart, lungs and abdomen.", "preferredTerm": "Auscultation", "submissionValue": "AUSCULTATION"}, {"conceptId": "C116157", "definition": "A molecular cytogenetic method combining chromosomal comparative genomic hybridization technique and microarray to detect chromosomal aberrations and changes in DNA copy numbers, using bacterial artificial chromosome clones containing target DNA fragments for hybridization.", "preferredTerm": "Bacterial Artificial Chromosome Array-based Comparative Genomic Hybridization", "submissionValue": "BAC ACGH", "synonyms": ["BAC Array-based CGH", "Bacterial Artificial Chromosome Array-based CGH", "Bacterial Artificial Chromosome Array-based Comparative Genomic Hybridization"]}, {"conceptId": "C85576", "definition": "A test that detects beta lactamase produced by Staphylococcus species, Haemophilus species, Moraxella catarrhalis, and Neisseria gonorrhoeae.", "preferredTerm": "Beta Lactamase Screening Method", "submissionValue": "BETA LACTAMASE"}, {"conceptId": "C15189", "definition": "The removal of tissue specimens or fluid from the living body for microscopic examination, performed to establish a diagnosis.", "preferredTerm": "Biopsy", "submissionValue": "BIOPSY"}, {"conceptId": "C85577", "definition": "A microscopy staining method that utilizes calcofluor, a fluorescent dye that preferentially stains chitin and cellulose on the cell walls of fungi, parasites, and some cysts of the Pneumocystis genus.", "preferredTerm": "Calcofluor White Staining Method", "submissionValue": "CALCOFLUOR WHITE STAIN"}, {"conceptId": "C54125", "definition": "The procedure or activity of determining a result by mathematical or logical methods. (NCI)", "preferredTerm": "Calculation", "submissionValue": "CALCULATION"}, {"conceptId": "C85578", "definition": "A microbiological technique for specimen collection and mounting for microscopic examination that utilizes a cellulose-based adhesive ribbon.", "preferredTerm": "Cellulose Tape Method", "submissionValue": "CELLULOSE TAPE"}, {"conceptId": "C16431", "definition": "A technique for the separation of complex mixtures that relies on the differential affinities of substances for a gas or liquid mobile medium and for a stationary adsorbing medium through which they pass.", "preferredTerm": "Chromatography", "submissionValue": "CHROMATOGRAPHY"}, {"conceptId": "C40960", "definition": "A laboratory procedure that combines the sequence-specific detection aspects of FISH with the simple detection methods of immunohistochemistry. Briefly, sequence-specific probes are hybridized to cells fixed on slides and the sequestered probe is visualized by a peroxidase reaction. It has the advantage of being a less costly assay that does not require fluorescence microscopy with results that are stable over time.", "preferredTerm": "Chromogenic In Situ Hybridization", "submissionValue": "CISH", "synonyms": ["Chromogenic in Situ Hybridization"]}, {"conceptId": "C111163", "definition": "A type of immunoprecipitation protocol that employs UV-light induced covalent cross-linking of molecules (for instance protein and RNA) prior to the immunoprecipitation and purification steps.", "preferredTerm": "Cross-Linking and Immunoprecipitation", "submissionValue": "CLIP", "synonyms": ["Cross-Linking and Immunoprecipitation"]}, {"conceptId": "C116152", "definition": "A molecular biology method combining crosslinking-immunoprecipitation and high-throughput sequencing techniques to detect and map RNA-protein interactions.", "preferredTerm": "Cross-linking Immunoprecipitation High-throughput Sequencing", "submissionValue": "CLIP SEQUENCING", "synonyms": ["CLIP-Seq", "Cross-linking Immunoprecipitation High-throughput Sequencing", "HITS-CLIP"]}, {"conceptId": "C111095", "definition": "Any of several methods used to detect the presence of or quantify the formation of a thrombus in a specimen. (NCI)", "preferredTerm": "Clot Detection", "submissionValue": "CLOT DETECTION"}, {"conceptId": "C111096", "definition": "A method to measure the absorbance of visible wavelengths of light using a colorimeter.", "preferredTerm": "Colorimetry", "submissionValue": "COLORIMETRY"}, {"conceptId": "C46087", "definition": "A technique that uses radiofrequency waves and a magnet to image the body. The images are enhanced by the addition of contrast agents which selectively intensify anatomical regions to intensify the clarity of the image for diagnostic purposes. (NCI)", "preferredTerm": "Contrast-enhanced Magnetic Resonance Imaging", "submissionValue": "CONTRAST ENHANCED MRI"}, {"conceptId": "C100085", "definition": "A procedure in which the catheter is passed into the aortic root or other great vessels for the purpose of angiography of the native coronary arteries or bypass grafts supplying native coronary arteries.", "preferredTerm": "Coronary Angiography", "submissionValue": "CORONARY ANGIOGRAPHY"}, {"conceptId": "C17204", "definition": "A series of detailed pictures of areas inside the body; the pictures are created by a computer linked to an x-ray machine.", "preferredTerm": "Computed Tomography", "submissionValue": "CT SCAN", "synonyms": ["CT", "Computed Tomography"]}, {"conceptId": "C85837", "definition": "A microscopic technique in which the light that does not come into contact with the structure or details of interest is subtracted from the ocular image. This yields an image in which the structure or details are alight while the areas where the structures or details are absent are dark.", "preferredTerm": "Dark Field Microscopy", "submissionValue": "DARK FIELD MICROSCOPY"}, {"conceptId": "C116158", "definition": "A technique used to deliver high-throughput digital PCR. The digital array partitions a sample premixed with PCR reagents into hundreds of individual PCR reactions, which allows the absolute quantification of target sequences and rare allele detection, as compared to conventional real-time quantitative PCR.", "preferredTerm": "Digital Array", "submissionValue": "DIGITAL PCR ARRAY", "synonyms": ["Digital PCR", "Digital Polymerase Chain Reaction", "dPCR"]}, {"conceptId": "C106516", "definition": "A strip of composite material that is coated or impregnated with reagents designed to detect the presence of an analyte in a liquid by producing a color change.", "preferredTerm": "Dipstick", "submissionValue": "DIPSTICK"}, {"conceptId": "C116154", "definition": "A technique used to identify the sequence of individual nucleotides in a single strand of DNA fragment template which does not require subcloning and can be a plasmid insert, genomic DNA or a PCR product.", "preferredTerm": "Direct Sequencing", "submissionValue": "DIRECT SEQUENCING"}, {"conceptId": "C85595", "definition": "A method to determine microbial susceptibility to antibiotics in which filter paper disks containing known concentrations of antibiotics are placed on the agar surface that has been previously inoculated with the bacteria of interest. Microbial susceptibility is assessed by measuring the area around the disk that is free of microbial growth.", "preferredTerm": "Disk Diffusion Method", "submissionValue": "DISK DIFFUSION"}, {"conceptId": "C18158", "definition": "An orderly array of DNA samples affixed to a support. The chip is used in various types of hybridization experiments. Used when a more specific microarray methodology is not specified.", "preferredTerm": "DNA Microarray Chip", "submissionValue": "DNA MICROARRAY", "synonyms": ["DNA Chip", "Gene Chip", "Gene Expression Array"]}, {"conceptId": "C48789", "definition": "A technique for scanning bone and measuring bone mineral density (BMD).", "preferredTerm": "Dual X-ray Absorptiometry", "submissionValue": "DXA SCAN"}, {"conceptId": "C62665", "definition": "A type of contrast-enhanced MRI that allows observation of functional properties in addition to structural properties.", "preferredTerm": "Dynamic Contrast-Enhanced Magnetic Resonance Imaging", "submissionValue": "DYNAMIC CONTRAST ENHANCED MRI"}, {"conceptId": "C62329", "definition": "A type of spectroscopy that utilizes a laser beam to irradiate a sample containing particles in suspension, resulting in light scattering.", "preferredTerm": "Photon Correlation Spectroscopy", "submissionValue": "DYNAMIC LIGHT SCATTERING", "synonyms": ["Photon Correlation Spectroscopy", "Quasi-elastic Light Scattering"]}, {"conceptId": "C16525", "definition": "A procedure that uses high-frequency sound waves (ultrasound) to create an image of the heart.", "preferredTerm": "Echocardiography", "submissionValue": "ECHOCARDIOGRAM"}, {"conceptId": "C38054", "definition": "A technique used to capture and record spontaneous electrical activity of the brain by the application of electrodes to the scalp.", "preferredTerm": "Electroencephalography", "submissionValue": "EEG", "synonyms": ["ELECTROENCEPHALOGRAPHY"]}, {"conceptId": "C17455", "definition": "Any of several immunoassay methods that use an enzyme covalently linked to an antigen or antibody as a label; the most common types are enzyme-linked immunosorbent assay (ELISA) and enzyme-multiplied immunoassay technique (EMIT).", "preferredTerm": "Enzyme Immunoassay", "submissionValue": "EIA", "synonyms": ["Enzyme Immunoassay"]}, {"conceptId": "C106517", "definition": "An ultrasound-based imaging technique used to examine the stiffness or elasticity of a tissue by applying mechanical compression or vibration to the tissue being imaged. (NCI)", "preferredTerm": "Elastography", "submissionValue": "ELASTOGRAPHY"}, {"conceptId": "C111193", "definition": "A method in which electromagnetic radiation, in the form of light emission, is generated from an electrochemical reaction in a solution. (NCI)", "preferredTerm": "Electrochemiluminescence", "submissionValue": "ELECTROCHEMILUMINESCENCE"}, {"conceptId": "C111194", "definition": "A method in which electromagnetic radiation, in the form of light emission, is generated from an electrochemical reaction in a solution due to the formation of antigen-antibody complexes.", "preferredTerm": "Electrochemiluminescence Immunoassay", "submissionValue": "ELECTROCHEMILUMINESCENCE IMMUNOASSAY"}, {"conceptId": "C16536", "definition": "The motion of charged particles in a colloid under the influence of an electric field; particles with a positive charge go to the cathode and negative to the anode.", "preferredTerm": "Electrophoresis", "submissionValue": "ELECTROPHORESIS"}, {"conceptId": "C16553", "definition": "An immunoassay for detecting and measuring antigens or antibodies in a solution; the solution is run over a surface to which immobilized antibodies specific to the substance have been attached, and if the substance is present, it will bind to the antibody layer, and its presence is verified and visualized with an application of antibodies that have been tagged in some way.", "preferredTerm": "ELISA", "submissionValue": "ELISA", "synonyms": ["Enzyme-linked Immunosorbent Assay"]}, {"conceptId": "C102632", "definition": "A highly sensitive immunoassay capable of detecting secreted materials from individuals cells upon activation. If the material of interest is secreted in response to a particular stimulus, then the material will bind to a specific immobilized antibody. Binding is then verified and visualized by applying other antibodies that have been tagged in some way.", "preferredTerm": "Enzyme-linked Immunosorbent Spot Assay", "submissionValue": "ELISPOT", "synonyms": ["Enzyme-linked Immunosorbent Spot Assay"]}, {"conceptId": "C16546", "definition": "An examination of the body using an endoscope.", "preferredTerm": "Endoscopic Procedure", "submissionValue": "ENDOSCOPY"}, {"conceptId": "C111195", "definition": "A type of colorimetry that makes use of an enzymatic reaction to induce a color change. (NCI)", "preferredTerm": "Enzymatic Colorimetry", "submissionValue": "ENZYMATIC COLORIMETRY"}, {"conceptId": "C111196", "definition": "A type of homogenous immunoassay in which sample is applied to a reagent mixture of enzyme-labeled ligand, antibody, and substrate. Substrate binding to enzyme leads to inactivation and unlabeled-ligand in the sample can be quantified by colorimetric analysis.", "preferredTerm": "Enzyme Multiplied Immunoassay Technique", "submissionValue": "ENZYME MULTIPLIED IMMUNOASSAY TECHNIQUE", "synonyms": ["EMIT"]}, {"conceptId": "C85596", "definition": "A method to determine microbial susceptibility to antibiotics in which a plastic strip impregnated with the antibiotic of interest is placed on an agar plate that has been inoculated with bacteria. The antibiotic diffuses from the strip producing a concentration gradient of drug on the agar. The point at which the elliptical shaped area of growth inhibition meets the strip is the minimum inhibitory concentration of the drug of interest.", "preferredTerm": "Epsilometry", "submissionValue": "EPSILOMETER"}, {"conceptId": "C117877", "definition": "A diagrammatic method to test visual acuity which incorporates the Bailey-Lovie layout in conjunction with Sloan optotypes.", "preferredTerm": "Early Treatment of Diabetic Retinopathy Study Eye Chart", "submissionValue": "ETDRS EYE CHART"}, {"conceptId": "C103400", "definition": "An imaging technique that utilizes positron emission tomography to produce a three-dimensional image of functional processes in the body. The system detects pairs of gamma rays emitted indirectly by a positron-emitting radionuclide (tracer), which is introduced into the body on the biologically active molecule (fludeoxyglucose) FDG. FDG is an analogue of glucose which when imaged will give tissue metabolic activity, in terms of regional glucose uptake.", "preferredTerm": "FDG-Positron Emission Tomography", "submissionValue": "FDGPET", "synonyms": ["FDG-PET Scan"]}, {"conceptId": "C17563", "definition": "A physical mapping approach that uses fluorescent tags to detect hybridization of probes within metaphase chromosomes or less condensed somatic interphase chromatin. This technique can be used for identification of chromosomal abnormalities and for gene mapping.", "preferredTerm": "Fluorescence In Situ Hybridization", "submissionValue": "FISH", "synonyms": ["Fluorescence in Situ Hybridization"]}, {"conceptId": "C106523", "definition": "A type of atomic spectroscopy that qualitatively or quantitatively measures select cations (particularly Na, K, Rb, Cs, Ca, Ba, Cu) by utilizing a low temperature flame capable of exciting a valence electron to an upper energy state which emits light at a wavelength unique to each cation as the electron returns to its ground state. (NCI)", "preferredTerm": "Flame Photometry", "submissionValue": "FLAME PHOTOMETRY"}, {"conceptId": "C16585", "definition": "A technique for counting, examining or sorting microscopic particles suspended in a stream of fluid.", "preferredTerm": "Flow Cytometry", "submissionValue": "FLOW CYTOMETRY"}, {"conceptId": "C112284", "definition": "A method of measuring the number of cells in a sample by placing the cells in a fluid and passing them, in a stream, through a special light microscope that can record and analyze images of the cells to determine the presence of foreign particles, cell counts, protein aggregates and morphology information.", "preferredTerm": "Flow Microscopy", "submissionValue": "FLOW MICROSCOPY"}, {"conceptId": "C103401", "definition": "An imaging technique that utilizes positron emission tomography to produce a three-dimensional image of functional processes in the body. The system detects pairs of gamma rays emitted indirectly by a positron-emitting radionuclide (tracer), which is introduced into the body on the biologically active molecule fluoro-L-thymidine (FLT). FLT when imaged will give tissue metabolic activity, in terms of cell proliferation.", "preferredTerm": "FLT-Positron Emission Tomography", "submissionValue": "FLTPET", "synonyms": ["FLT-PET Scan"]}, {"conceptId": "C17370", "definition": "A bioassay in which fluorescent-coupled antibodies or antigens are used to quantify or qualify a biological response to a stimulus.", "preferredTerm": "Fluorescent Antibody Procedure", "submissionValue": "FLUORESCENT IMMUNOASSAY", "synonyms": ["Fluorescent Antibody Assay", "Immunofluorescence Assay"]}, {"conceptId": "C16856", "definition": "Microscopy of specimens stained with fluorescent dye (usually fluorescein isothiocyanate) or of naturally fluorescent materials, which emit light when exposed to ultraviolet or blue light.", "preferredTerm": "Fluorescence Microscopy", "submissionValue": "FLUORESCENT MICROSCOPY"}, {"conceptId": "C62322", "definition": "An analytical method that utilizes ultraviolet light to excite the sample and detects the fluorescence emitted during the return of the sample to its ground state. (NCI)", "preferredTerm": "Fluorimetry", "submissionValue": "FLUORIMETRY"}, {"conceptId": "C17958", "definition": "A type of MRI that takes a series of images of an organ in quick succession and statistically analyzes the differences between the images.", "preferredTerm": "Functional Magnetic Resonance Imaging", "submissionValue": "FUNCTIONAL MRI", "synonyms": ["fMRI"]}, {"conceptId": "C111203", "definition": "An analytical technique where gas chromatography is coupled with mass spectrometry in order to separate, identify, and quantify substances in a sample. (NCI)", "preferredTerm": "Gas Chromatography Mass Spectrometry", "submissionValue": "GC/MS", "synonyms": ["Gas Chromatography/Mass Spectrometry"]}, {"conceptId": "C18091", "definition": "A method of separating large molecules (such as DNA fragments or proteins) from a mixture of similar molecules by electrophoretic filtration through a gelatinous matrix. Subject to an electric field, each molecule in the sample mixture migrates through the matrix at a different rate, depending mainly on electrical charge and size, resulting in spatial separation within the matrix of each molecular species in the sample mixture. Agarose and acrylamide in a cylindrical tube or slab gel are commonly used media for electrophoresis of proteins and nucleic acids.", "preferredTerm": "Gel Electrophoresis", "submissionValue": "GEL ELECTROPHORESIS"}, {"conceptId": "C85598", "definition": "A microscopy staining method that utilizes Giemsa, a mixture of ethylene blue and eosin, which forms purplish-black crystals when dried. This stain preferentially binds to the phosphate groups of DNA and aggregates at areas with an increase in adenine-thymine binding, thus leading to chromosomal staining patterns that lend themselves to g-banding analysis. Additionally Giemsa can be used as a differential stain to determine microbial cell adherence to human cells as well as in the diagnosis of malaria, spirochete, and protozoal infections.", "preferredTerm": "Giemsa Staining Method", "submissionValue": "GIEMSA STAIN"}, {"conceptId": "C85599", "definition": "A method to determine microbial susceptibility to antibiotics in which an agar plate, which has a concentration gradient of the drug within the agar, is streaked with the microorganism of interest. Microbial susceptibility as well as minimum inhibitory concentration of antibiotic is assessed.", "preferredTerm": "Gradient Diffusion Method", "submissionValue": "GRADIENT DIFFUSION"}, {"conceptId": "C23014", "definition": "A microscopy staining method for staining and identifying bacteria, based on the differential retention of a crystal violet-iodine complex within the cell membrane. Gram-positive organisms will appear blue-black or purple while Gram-negative organisms will appear red.", "preferredTerm": "Gram Staining Method", "submissionValue": "GRAM STAIN"}, {"conceptId": "C111205", "definition": "A microscopy staining method that uses Hansel reagent to differentiate eosinophils and neutrophils in a specimen. (NCI)", "preferredTerm": "Hansel Staining Method", "submissionValue": "HANSEL STAIN"}, {"conceptId": "C23011", "definition": "A microscopy staining method that utilizes two separate dyes, one staining the nucleus and the other staining the cytoplasm and connective tissue. Hematoxylin is a dark purplish dye that stains the chromatin (nuclear material) within the nucleus. Eosin is an orangish-pink to red dye that stains the cytoplasmic material including connective tissue and collagen.", "preferredTerm": "Hematoxylin and Eosin Staining Method", "submissionValue": "HEMATOXYLIN AND EOSIN STAIN", "synonyms": ["H&E Stain"]}, {"conceptId": "C85556", "definition": "A method to determine microbial susceptibility to high concentrations of aminoglycoside antibiotics.", "preferredTerm": "Aminoglycoside Screening Method", "submissionValue": "HIGH LEVEL AMINOGLYCOSIDE SCREEN"}, {"conceptId": "C16434", "definition": "Frequently referred to simply as HPLC, this form of column chromatography is used frequently in biochemistry. The analyte is forced through a column by liquid at high pressure, which decreases the time the separated components remain on the stationary phase. Less time on the column then translates to narrower peaks in the resulting chromatogram and thence to better selectivity and sensitivity.", "preferredTerm": "High Performance Liquid Chromatography", "submissionValue": "HPLC", "synonyms": ["High Performance Liquid Chromatography"]}, {"conceptId": "C103513", "definition": "An analytical technique wherein high performance liquid chromatography is coupled to mass spectrometry in order to separate, identify, and quantify substances in a sample.", "preferredTerm": "High Performance Liquid Chromatography Mass Spectrometry", "submissionValue": "HPLC/MS", "synonyms": ["High Performance Liquid Chromatography/Mass Spectrometry"]}, {"conceptId": "C23020", "definition": "Immunohistochemical staining techniques allow for the visualization of antigens via the sequential application of a specific antibody to the antigen (primary antibody), a secondary antibody to the primary antibody and an enzyme complex with a chromogenic substrate. The enzymatic activation of the chromogen results in a visible reaction product at the antigen site. The specimen may then be counterstained and coverslipped. Results are interpreted using a light microscope and aid in the differential diagnosis of pathophysiological processes, which may or may not be associated with a particular antigen.", "preferredTerm": "Immunohistochemistry Staining Method", "submissionValue": "IHC", "synonyms": ["Immunohistochemistry"]}, {"conceptId": "C16714", "definition": "An immunological procedure involving the usage of enzyme-antibody or enzyme-antigen conjugates, antienzyme antibodies, or enzyme-antienzyme complexes.", "preferredTerm": "Immunoenzyme Procedure", "submissionValue": "IMMUNOASSAY"}, {"conceptId": "C17638", "definition": "A technique for analyzing or identifying proteins immobilized on a filter by complementary reaction with specific antibodies. (NCI)", "preferredTerm": "Immunoblot Analysis", "submissionValue": "IMMUNOBLOT"}, {"conceptId": "C111235", "definition": "An immunoassay in which the antigen-antibody complex is quantified using light emission, which is generated from a chemical reaction.", "preferredTerm": "Immunochemiluminometric Assay", "submissionValue": "IMMUNOCHEMILUMINOMETRIC ASSAY", "synonyms": ["Chemiluminesence Immunoassay", "ICMA"]}, {"conceptId": "C16724", "definition": "Antigen aggregation with antibody, in the right ratios, to cause precipitation. (NCI)", "preferredTerm": "Immunoprecipitation", "submissionValue": "IMMUNOPRECIPITATION"}, {"conceptId": "C111236", "definition": "An antibody-excess, non-competition radioimmunometric assay in which ligand is sandwiched between an immobilized antibody on a solid phase and a radiolabeled antibody raised against a different epitope of the ligand.", "preferredTerm": "Immunoradiometric Assay", "submissionValue": "IMMUNORADIOMETRIC ASSAY", "synonyms": ["IRMA"]}, {"conceptId": "C106536", "definition": "A method that measures the absorbance of light from a sample which is used for quantifying an amount of analyte based on the level of turbidity produced by the formation and precipitation of an immune complex containing the analyte. (NCI)", "preferredTerm": "Immunoturbidimetry", "submissionValue": "IMMUNOTURBIDIMETRY"}, {"conceptId": "C17562", "definition": "Use of a DNA or RNA probe to detect the presence of complementary sequences in chromosomes, cells, or tissues. (NCI)", "preferredTerm": "In Situ Hybridization", "submissionValue": "IN SITU HYBRIDIZATION"}, {"conceptId": "C85642", "definition": "A microscopy staining method that utilizes India Ink, a water soluble carbon-based black ink, to determine the presence of microorganisms that are surrounded by a gelatinous capsule. This is a negative staining method in which background is stained in black and the microbes and microscopic structures of interest remain white.", "preferredTerm": "India Ink Staining Method", "submissionValue": "INDIA INK STAIN"}, {"conceptId": "C85643", "definition": "A spectrometric method that determines the type and concentration of elements or chemicals in a sample, based upon the principle that the atoms in a sample will vibrate or rotate at a specific frequency when exposed to infrared light.", "preferredTerm": "Infrared Spectrometry", "submissionValue": "INFRARED SPECTROMETRY"}, {"conceptId": "C99535", "definition": "An invasive procedure in which sound waves (called ultrasound) are bounced off of vascular tissues from within the vessel and the echoes produce a picture (sonogram).", "preferredTerm": "Intravascular Ultrasound", "submissionValue": "INTRAVASCULAR ULTRASOUND", "synonyms": ["IVUS"]}, {"conceptId": "C85649", "definition": "A microscopy staining method that utilizes Iodine, an element belonging to the halogen group, which specifically stains polysaccharides such as cellulose, chitin, glycogen, and starch a blue color.", "preferredTerm": "Iodine Staining Method", "submissionValue": "IODINE STAIN"}, {"conceptId": "C85650", "definition": "A microscopy staining method that utilizes a mixture of iron and hematoxylin to visualize intracellular structures in a microscopic sample. In this dye system, iron acts as a mordant to hematoxylin rendering it insoluble, thereby allowing irreversible blue-black colored dyeing to the cell nucleus.", "preferredTerm": "Iron Hematoxylin Staining Method", "submissionValue": "IRON HEMATOXYLIN STAIN"}, {"conceptId": "C16768", "definition": "The preparation, analysis, and interpretation of a karyotype, the representation of the chromosome set of a cell sample.", "preferredTerm": "Karyotyping", "submissionValue": "KARYOTYPING"}, {"conceptId": "C111240", "definition": "A type of immunoassay in which the antigen of interest found in a biological specimen competes with a lattice of antigen-antibody complexes. Competing antigen inhibits lattice formation and decreases absorbance in proportion to the amount of antigen present in a biological specimen. (NCI)", "preferredTerm": "Kinetic Microparticle Immunoassay", "submissionValue": "KINETIC MICROPARTICLE IMMUNOASSAY"}, {"conceptId": "C85651", "definition": "A microscopy acid fast staining method that utilizes kinyoun carbol fuchsin, a dye containing basic fuchsin in solution with ethyl alcohol and aqueous phenol. This acid fast staining technique does not require heating during the primary staining step involving the carbol fuchsin.", "preferredTerm": "Kinyoun Staining Method", "submissionValue": "KINYOUN STAIN"}, {"conceptId": "C19263", "definition": "A technique used for the highly specific and selective capture and isolation of a cell population from a heterogeneous tissue section, cytological preparation, or live cell culture. This technique uses direct visualization of the cells via microscopy as well as a laser energy source for cutting and extraction of the cells.", "preferredTerm": "Laser Capture Microdissection", "submissionValue": "LASER CAPTURE MICRODISSECTION", "synonyms": ["LCM", "LMD", "Laser Microdissection"]}, {"conceptId": "C18475", "definition": "An analytical technique wherein liquid chromatography is coupled to mass spectrometry in order to separate, identify, and quantify substances in a sample.", "preferredTerm": "Liquid Chromatography Mass Spectrometry", "submissionValue": "LC/MS", "synonyms": ["Liquid Chromatography/Mass Spectrometry"]}, {"conceptId": "C92301", "definition": "A microscopy staining method that utilizes lead citrate, a mixture of lead nitrate and sodium citrate, and has applications for electron microscopy staining.", "preferredTerm": "Lead Citrate Staining Method", "submissionValue": "LEAD CITRATE STAIN"}, {"conceptId": "C17995", "definition": "Light microscopy is a technique for producing visible images of structures or details which are too small to be otherwise seen by the human eye. It involves passing light transmitted through or reflected from the subject through a series of lenses to be detected directly by the eye, imaged on a photographic plate, or captured digitally.", "preferredTerm": "Light Microscopy", "submissionValue": "LIGHT MICROSCOPY"}, {"conceptId": "C20059", "definition": "A type of spectroscopy that measures power spectral density of surface morphology by exploiting the tendency of light to disperse into a range of directions as a result of physical interaction.", "preferredTerm": "Light-Scattering Spectroscopy", "submissionValue": "LIGHT SCATTERING SPECTROSCOPY", "synonyms": ["LiSSP"]}, {"conceptId": "C102656", "definition": "A microbial identification technique in which polymerase chain reaction is used to amplify specific nucleic acid sequences in a biospecimen. The product of this reaction is then applied to a nitrocellulose test strip containing complementary DNA probes.", "preferredTerm": "Line Probe Assay", "submissionValue": "LINE PROBE ASSAY", "synonyms": ["LPA", "LiPA"]}, {"conceptId": "C102661", "definition": "A type of nucleic acid amplification test in which sample DNA is exposed to a single temperature in the presence of multiple sets of primers and a polymerase with replication and high strand displacement activity. This test negates the need for thermal cyclers and may be a low cost alternative to PCR.", "preferredTerm": "Loop-mediated Isothermal Amplification", "submissionValue": "LOOP-MEDIATED ISOTHERMAL AMPLIFICATION", "synonyms": ["LAMP"]}, {"conceptId": "C92300", "definition": "A microscopy staining method that utilizes luxol fast blue, an alcohol soluble copper phthalocyanine dye, and cresyl violet, an organic compound that is commonly used as a counter stain, to determine the presence of myelin as well as helicobacter and campylobacter bacterial species.", "preferredTerm": "Luxol Fast Blue and Cresyl Violet Staining Method", "submissionValue": "LUXOL FAST BLUE AND CRESYL VIOLET STAIN"}, {"conceptId": "C85697", "definition": "A method to determine the minimum inhibitory concentration (MIC) of antibiotics in which growth media is pipetted into a test tube. Each tube contains a known concentration of drug and is inoculated with a known quantity of bacteria. The tubes are incubated for a specified period of time and each is assessed for bacterial cell growth. The drug concentration in the first tube showing no growth is known as the MIC for that antibiotic.", "preferredTerm": "Macro Broth Dilution Method", "submissionValue": "MACRO BROTH DILUTION"}, {"conceptId": "C48040", "definition": "A mass spectrometric technique that is used for the analysis of large biomolecules. Analyte molecules are embedded in an excess matrix of small organic molecules that show a high resonant absorption at the laser wavelength used. The matrix absorbs the laser energy, thus inducing a soft disintegration of the sample- matrix mixture into free (gas phase) matrix and analyte molecules and molecular ions. In general, only molecular ions of the analyte molecules are produced and almost no fragmentation occurs. This makes the method well suited for molecular weight determinations and mixture analysis. (CHI)", "preferredTerm": "Matrix-Assisted Laser Desorption Ionization Mass Spectrometry", "submissionValue": "MALDI", "synonyms": ["Matrix-Assisted Laser Desorption Ionization Mass Spectrometry"]}, {"conceptId": "C19935", "definition": "In MALDI-TOF, a laser pulse is fired into a protein or peptide sample contained in a light-absorbing matrix. A small explosion vaporizes and ionizes the sample. In the presence of a high electric field, peptide ions are accelerated down an evacuated flight tube. Because large particles travel more slowly than small ones, the masses of the ionized particles are determined by measuring their arrival time at the end of the tube.", "preferredTerm": "Matrix-Assisted Laser Desorption/Ionization-Time of Flight Mass Spectrometry", "submissionValue": "MALDI-TOF", "synonyms": ["Matrix-Assisted Laser Desorption/Ionization-Time of Flight Mass Spectrometry"]}, {"conceptId": "C16818", "definition": "A type of radiography used specifically to examine breast tissue. The procedure utilizes a low-dose of x-rays or radiation to generate an image.", "preferredTerm": "Mammography", "submissionValue": "MAMMOGRAPHY"}, {"conceptId": "C111245", "definition": "A clot detection method that uses a manual means (visual discernment) to detect the presence and/or quantify the formation of a thrombus in a specimen. (NCI)", "preferredTerm": "Manual Clot Detection", "submissionValue": "MANUAL CLOT DETECTION"}, {"conceptId": "C116159", "definition": "A screening method used to determine changes in complex genomes. This method uses unique short probes which are quantitatively recovered and amplified after hybridization to genomic DNA.", "preferredTerm": "Multiplex Amplifiable Probe Hybridization", "submissionValue": "MAPH", "synonyms": ["Multiplex Amplifiable Probe Hybridization"]}, {"conceptId": "C17156", "definition": "An analytical technique wherein ions are separated according to their ratio of charge to mass. From the mass spectrum produced, the atomic weight of the particle can be deduced.", "preferredTerm": "Mass Spectrometry", "submissionValue": "MASS SPECTROMETRY", "synonyms": ["MassSpec"]}, {"conceptId": "C111249", "definition": "A clot detection method that uses a mechanical means (electromagnetic mechanical or electromechanical) to detect the presence of or quantify the formation of a thrombus in a specimen. (NCI)", "preferredTerm": "Mechanical Clot Detection", "submissionValue": "MECHANICAL CLOT DETECTION"}, {"conceptId": "C85701", "definition": "A method to determine the minimum inhibitory concentration (MIC) of antibiotics in which growth media is pipetted into a multi-well plate. Each well contains a known concentration of drug which is inoculated with a known quantity of bacteria. The plate is incubated for a specified period of time and each well is assessed for bacterial cell growth. The drug concentration in the first well showing no growth is known as the MIC for that antibiotic.", "preferredTerm": "Micro Broth Dilution Method", "submissionValue": "MICRO BROTH DILUTION"}, {"conceptId": "C44282", "definition": "A piece of glass or plastic on which different samples have been affixed at separate locations in an ordered manner thus forming a microscopic array. The samples are usually DNA fragments but may also be antibodies, other proteins, or tissues.", "preferredTerm": "Microarray", "submissionValue": "MICROARRAY"}, {"conceptId": "C51955", "definition": "Any of a number of biochemical tests performed to identify the genus and/or species of a microorganism. These may include the assessment of gram reaction or metabolic characteristics.", "preferredTerm": "Bacterial Typing Procedure", "submissionValue": "MICROBIAL BIOCHEMICAL IDENTIFICATION"}, {"conceptId": "C85702", "definition": "Any technique in which a sample is condensed in order to afford greater sensitivity for the detection of microorganisms.", "preferredTerm": "Microbial Concentration Method", "submissionValue": "MICROBIAL CONCENTRATION"}, {"conceptId": "C25300", "definition": "Any method for growing microorganisms.", "preferredTerm": "Microbial Culture Procedure", "submissionValue": "MICROBIAL CULTURE", "synonyms": ["Culture Procedure"]}, {"conceptId": "C102668", "definition": "A method for growing microorganisms in liquid culture media.", "preferredTerm": "Microbial Liquid Culture", "submissionValue": "MICROBIAL CULTURE, LIQUID"}, {"conceptId": "C102669", "definition": "A method for growing microorganisms in solid culture media.", "preferredTerm": "Microbial Solid Culture", "submissionValue": "MICROBIAL CULTURE, SOLID"}, {"conceptId": "C111252", "definition": "An enzyme immunoassay that uses antigen-coated microparticles as a substrate for antibody binding.", "preferredTerm": "Microparticle Enzyme Immunoassay", "submissionValue": "MICROPARTICLE ENZYME IMMUNOASSAY", "synonyms": ["MEIA"]}, {"conceptId": "C16853", "definition": "The application of microscope magnification to the study of materials that cannot be properly seen by the unaided eye. (NCI)", "preferredTerm": "Microscopy", "submissionValue": "MICROSCOPY"}, {"conceptId": "C85736", "definition": "A microscopy staining method, that does not utilize heat in the slide preparation, used to examine a specimen for the presence of acid-fast microorganisms, specifically nocardia.", "preferredTerm": "Modified Acid Fast Staining Method", "submissionValue": "MODIFIED ACID FAST STAIN"}, {"conceptId": "C16809", "definition": "Imaging that uses radiofrequency waves and a strong magnetic field rather than x-rays to provide amazingly clear and detailed pictures of internal organs and tissues. The technique is valuable for the diagnosis of many pathologic conditions, including cancer, heart and vascular disease, stroke, and joint and musculoskeletal disorders.", "preferredTerm": "Magnetic Resonance Imaging", "submissionValue": "MRI", "synonyms": ["Magnetic Resonance Imaging"]}, {"conceptId": "C114184", "definition": "A technique that uses radiofrequency waves and a magnet to image the body, in which the images are not enhanced by the addition of contrast agents.", "preferredTerm": "MRI Without Contrast", "submissionValue": "MRI WITHOUT CONTRAST"}, {"conceptId": "C29934", "definition": "Magnetic resonance spectroscopy is a noninvasive imaging technique that operates by exciting and recording signals from a range of magnetic resonance frequencies, allowing the identification and quantification of several biologically significant molecules containing proton groups that resonate in the appropriate frequency range. The technique facilitates observation of the spatial distribution of metabolic patterns over a region of interest and surrounding tissue at a high spatial resolution. (NCI)", "preferredTerm": "Magnetic Resonance Spectroscopic Imaging", "submissionValue": "MRS", "synonyms": ["Magnetic Resonance Spectroscopy"]}, {"conceptId": "C38073", "definition": "A multi-gated acquisition (MUGA) scan and a form of radionuclide imaging that provides a comprehensive look at blood flow and the function of the lower chambers of the heart ventricles. (NCI)", "preferredTerm": "Radionuclide Ventriculogram Scan", "submissionValue": "MUGA"}, {"conceptId": "C106545", "definition": "A type of spiral computed tomography that employs multiple rows of detectors, each capable of producing a simultaneous image (slice). (NCI)", "preferredTerm": "Multi-slice Spiral Computed Tomography", "submissionValue": "MULTI-SLICE SPIRAL CT"}, {"conceptId": "C116160", "definition": "A DNA mapping technique based on complete restriction enzyme digestion of a set of overlapping clones that provides highly redundant coverage of the mapping target.", "preferredTerm": "Multiple Complete Digest Restriction Fragment Mapping", "submissionValue": "MULTIPLE-COMPLETE-DIGEST RESTRICTION FRAGMENT MAPPING", "synonyms": ["Multiple Complete Digestion"]}, {"conceptId": "C116161", "definition": "A type of high-throughput , multiplex PCR method that uses a single pair of PCR primers to amplify multiple targets and to determine changes in complex genomes.", "preferredTerm": "Multiplex Ligation-dependent Probe Amplification", "submissionValue": "MULTIPLEX LIGATION-DEPENDENT PROBE AMPLIFICATION", "synonyms": ["MLPA"]}, {"conceptId": "C111281", "definition": "A method to quantify the concentration of particulate matter suspended in a liquid or gas using a nephelometer.", "preferredTerm": "Nephelometry", "submissionValue": "NEPHELOMETRY"}, {"conceptId": "C101293", "definition": "Technologies that facilitate the rapid determination of the DNA sequence of large numbers of strands or segments of DNA, using spatially separated, clonally amplified DNA templates or molecules in a flow cell.", "preferredTerm": "Next Generation Sequencing", "submissionValue": "NEXT GENERATION SEQUENCING", "synonyms": ["Massively Parallel Sequencing"]}, {"conceptId": "C20055", "definition": "Any of a number of molecular biological techniques that are used to copy nucleic acid sequences within a specimen, leading to an increase in the number of copies of that sequence of interest. These techniques may be used for detection of a particular gene or microorganism of interest.", "preferredTerm": "Nucleic Acid Amplification Test", "submissionValue": "NUCLEIC ACID AMPLIFICATION TEST", "synonyms": ["NAAT"]}, {"conceptId": "C16924", "definition": "A method in which single stranded nucleic acids are allowed to interact so that complexes, or hybrids, are formed by molecules with sufficiently similar, complementary sequences. By this means the degree of sequence identity can be assessed and specific sequences detected. (From Biology-online)", "preferredTerm": "Nucleic Acid Hybridization", "submissionValue": "NUCLEIC ACID HYBRIDIZATION"}, {"conceptId": "C18881", "definition": "The process of determining the sequence of purines and pyrimidines in nucleic acids and polynucleotides.", "preferredTerm": "Nucleic Acid Sequencing", "submissionValue": "NUCLEIC ACID SEQUENCING"}, {"conceptId": "C25598", "definition": "Watching something and taking note of what happens.", "preferredTerm": "Observation", "submissionValue": "OBSERVATION"}, {"conceptId": "C116156", "definition": "A molecular cytogenetic method combining chromosomal comparative genomic hybridization technique and microarray to detect chromosomal aberrations and changes in DNA copy numbers in the genome, using oligonucleotides as targets for hybridization.", "preferredTerm": "Oligonucleotide Array-based Comparative Genomic Hybridization", "submissionValue": "OLIGO ACGH", "synonyms": ["Oligonucleotide Array-based CGH", "Oligonucleotide Array-based Comparative Genomic Hybridization"]}, {"conceptId": "C20828", "definition": "Optical Coherence Tomography (OCT) combines the principles of ultrasound with the imaging performance of a microscope. OCT uses infrared light waves that reflect off the internal microstructure within the biological tissues. The frequencies and bandwidths of infrared light are orders of magnitude higher than medical ultrasound signals, resulting in greatly increased image resolution, 8-25 times greater than any existing modality. In addition to providing high-level resolutions for the evaluation of microanatomic structures OCT is also able to provide information regarding tissue composition. (NCI)", "preferredTerm": "Optical Coherence Tomography", "submissionValue": "OPTICAL COHERENCE TOMOGRAPHY"}, {"conceptId": "C85776", "definition": "A quantification of the amount of light that is absorbed by or transmitted through a substance.", "preferredTerm": "Optical Density Measurement", "submissionValue": "OPTICAL DENSITY MEASUREMENT"}, {"conceptId": "C116162", "definition": "A technique used for constructing the ordered and high-resolution genome or chromosome sized restriction enzyme map of an organism from a single, stained DNA molecule, digested by the restriction enzyme and imaged by an optical microscope.", "preferredTerm": "Optical Mapping", "submissionValue": "OPTICAL MAPPING", "synonyms": ["Optical Map"]}, {"conceptId": "C16950", "definition": "A method of feeling with the hands during a physical examination. The health care provider touches and feels the patient's body to examine the size, consistency, texture, location and tenderness of an organ or body part.", "preferredTerm": "Palpation", "submissionValue": "PALPATION"}, {"conceptId": "C94528", "definition": "An endoscopic examination of the pharynx, larynx, trachea and esophagus.", "preferredTerm": "Panendoscopy", "submissionValue": "PANENDOSCOPY"}, {"conceptId": "C117878", "definition": "A diagrammatic method to test visual acuity and contrast sensitivity, which uses large letters (at a 20/60 acuity) that decrease in contrast from right to left and top to bottom.", "preferredTerm": "Pelli-Robson Contrast Sensitivity Eye Chart", "submissionValue": "PELLI-ROBSON EYE CHART"}, {"conceptId": "C62298", "definition": "A diagnostic test performed on a tooth by tapping on the crown with a dental instrument.", "preferredTerm": "Dental Percussion", "submissionValue": "PERCUSSION"}, {"conceptId": "C23019", "definition": "A microscopy staining method that utilizes Schiff's reagent, a solution composed of pararosanilin treated with sulfurous acid, which selectively reacts with and stains aldehydes pink to determine the presence of glycogen, mucin, mucoprotein, glycoprotein, as well as fungi. Periodic Acid Schiff staining is useful for outlining tissue structures such as basement membranes, capsules and blood vessels.", "preferredTerm": "Periodic Acid Schiff Staining Method", "submissionValue": "PERIODIC ACID SCHIFF STAIN"}, {"conceptId": "C117879", "definition": "A procedure in which the catheter is passed into a peripheral vessel (usually in the groin) for the purpose of angiography of the abdomen, hands, arms, feet and legs.", "preferredTerm": "Peripheral Angiography", "submissionValue": "PERIPHERAL ANGIOGRAPHY"}, {"conceptId": "C17007", "definition": "An imaging technique for measuring the gamma radiation produced by collisions of electrons and positrons (anti-electrons) within living tissue. In positron emission tomography (PET), a subject is given a dose of a positron-emitting radionuclide attached to a metabolically active substance. A scanner reveals the tissue location of the metabolically-active substance administered.", "preferredTerm": "Positron Emission Tomography", "submissionValue": "PET SCAN"}, {"conceptId": "C103512", "definition": "An imaging technique that utilizes positron emission tomography and computed tomography in a single machine.", "preferredTerm": "Positron Emission Tomography and Computed Tomography Scan", "submissionValue": "PET/CT SCAN"}, {"conceptId": "C103514", "definition": "An imaging technique that utilizes positron emission tomography and magnetic resonance imaging in a single machine.", "preferredTerm": "Positron Emission Tomography and Magnetic Resonance Imaging", "submissionValue": "PET/MRI SCAN"}, {"conceptId": "C111297", "definition": "An imaging technique that utilizes positron emission tomography and single-photon emission computed tomography in a single machine.", "preferredTerm": "Positron Emission Tomography and Single Photon Emission Computed Tomography Scan", "submissionValue": "PET/SPECT SCAN"}, {"conceptId": "C16857", "definition": "A microscopic technique in which the amplitude shift that occurs when light passes through a specimen highlights structures or details within the specimen.", "preferredTerm": "Phase-Contrast Microscopy", "submissionValue": "PHASE CONTRAST MICROSCOPY"}, {"conceptId": "C94527", "definition": "The process by which an image is acquired by recording light emissions.", "preferredTerm": "Photography", "submissionValue": "PHOTOGRAPHY"}, {"conceptId": "C111291", "definition": "A clot detection method that uses a photometric means (measuring the absorbancy of monochromatic light) to detect the presence and/or quantify the formation of a thrombus in a specimen. (NCI)", "preferredTerm": "Photometric Clot Detection", "submissionValue": "PHOTOMETRIC CLOT DETECTION"}, {"conceptId": "C65109", "definition": "Measurement of the properties of light, especially luminous intensity. (NCI)", "preferredTerm": "Photometry", "submissionValue": "PHOTOMETRY"}, {"conceptId": "C20989", "definition": "A systemic evaluation of the body and its functions using visual inspection, palpation, percussion and auscultation. The purpose is to determine the presence or absence of physical signs of disease or abnormality for an individual's health assessment.", "preferredTerm": "Physical Examination", "submissionValue": "PHYSICAL EXAMINATION", "synonyms": ["Physical Exam"]}, {"conceptId": "C17003", "definition": "A method for amplifying a DNA base sequence using multiple rounds of heat denaturation of the DNA and annealing of oligonucleotide primers complementary to flanking regions in the presence of a heat-stable polymerase. This results in duplication of the targeted DNA region. Newly synthesized DNA strands can subsequently serve as additional templates for the same primer sequences, so that successive rounds of primer annealing, strand elongation, and dissociation produce rapid and highly specific amplification of the desired sequence. PCR also can be used to detect the existence of the defined sequence in a DNA sample.", "preferredTerm": "Polymerase Chain Reaction", "submissionValue": "POLYMERASE CHAIN REACTION", "synonyms": ["PCR"]}, {"conceptId": "C114185", "definition": "A group of tests taken during sleep to capture and record brain wave changes, eye movements, breathing rate, blood pressure, heart rate, and the electrical activity of the heart and other muscles.", "preferredTerm": "Polysomnography", "submissionValue": "POLYSOMNOGRAPHY", "synonyms": ["PSG"]}, {"conceptId": "C99481", "definition": "A DNA sequencing technique that is based on the detection of released pyrophosphate during DNA synthesis.", "preferredTerm": "Pyrosequencing", "submissionValue": "PYROSEQUENCING"}, {"conceptId": "C28408", "definition": "A modified polymerase chain reaction (PCR) technique in which RNA sequences are reverse transcribed into complementary DNA (cDNA) transcripts by the enzyme reverse transcriptase. The cDNA is then amplified by a PCR reaction and quantified by comparing to a standard, using fluorescent probes.", "preferredTerm": "Quantitative Reverse Transcriptase PCR", "submissionValue": "QUANTITATIVE REVERSE TRANSCRIPTASE POLYMERASE CHAIN REACTION", "synonyms": ["qRT-PCR"]}, {"conceptId": "C51962", "definition": "A modified polymerase chain reaction (PCR) technique in which DNA amplification is detected and quantified as the PCR reaction progresses, through the use of fluorescent DNA probes in the reaction mixture.", "preferredTerm": "Real Time PCR", "submissionValue": "REAL-TIME POLYMERASE CHAIN REACTION ASSAY", "synonyms": ["Quantitative PCR", "Real Time-PCR", "qPCR"]}, {"conceptId": "C19340", "definition": "The spectroscopic analysis of light reflected from a polished sample.", "preferredTerm": "Reflectance or Transmission Spectroscopy", "submissionValue": "REFLECTANCE SPECTROSCOPY"}, {"conceptId": "C111304", "definition": "A method to measure the refractive index (propensity for light to bend) of a sample. (NCI)", "preferredTerm": "Refractometry", "submissionValue": "REFRACTOMETRY"}, {"conceptId": "C40211", "definition": "A genomic microarray-based method that analyzes two restriction enzyme digested full genomes to identify regions in the genome that have undergone large scale variation.", "preferredTerm": "Representational Oligonucleotide Microarray Analysis", "submissionValue": "REPRESENTATIONAL OLIGONUCLEOTIDE MICROARRAY ANALYSIS", "synonyms": ["ROMA"]}, {"conceptId": "C18136", "definition": "A molecular biology technique used to recreate and amplify complimentary DNA (cDNA) from total RNA or messenger RNA (mRNA).", "preferredTerm": "Reverse Transcriptase-Polymerase Chain Reaction", "submissionValue": "REVERSE TRANSCRIPTASE PCR", "synonyms": ["RT-PCR", "Reverse Transcription Polymerase Chain Reaction"]}, {"conceptId": "C17057", "definition": "Radioimmunoassay (RIA) is an immunological technique, which quantitatively determines antigen and antibody concentrations, using a radioactively labeled substance (radioligand), either directly or indirectly.", "preferredTerm": "Radioimmunoassay", "submissionValue": "RIA", "synonyms": ["Radioimmunoassay"]}, {"conceptId": "C85801", "definition": "A microscopy staining method that utilizes a modified trichrome stain to determine the presence of microspordial, sporulating species. This staining technique substitutes aniline blue for the fast green counterstain of the original trichrome staining method and decreased levels of phosphotungstic acid in the reagent.", "preferredTerm": "Ryan Blue Staining Method", "submissionValue": "RYAN BLUE STAIN"}, {"conceptId": "C16855", "definition": "An electron microscopy imaging technique that is utilized to examine structural components of a sample by passing electrons through a specimen that has been coated with a heavy metal.", "preferredTerm": "Scanning Electron Microscopy", "submissionValue": "SCANNING ELECTRON MICROSCOPY"}, {"conceptId": "C62667", "definition": "An imaging technique that uses a small dose of a radioactive chemical (isotope) called a tracer that can detect sites of cancer growth, trauma, infection or degenerative disorders. The tracer, which is either injected into a vein or swallowed, travels through the bloodstream to the target organ, and emits gamma rays, which are detected by a gamma camera and analyzed by a computer to form an image of the target organ. (NCI)", "preferredTerm": "Radionuclide Imaging", "submissionValue": "SCINTIGRAPHY"}, {"conceptId": "C116155", "definition": "A process to identify and determine the primary structure of, and the order of constituents in a biopolymer. Used when a more specific sequencing methodology is not specified.", "preferredTerm": "Biopolymer Sequencing", "submissionValue": "SEQUENCING"}, {"conceptId": "C106567", "definition": "A type of spiral computed tomography that employs only one detector and produces one image (slice). (NCI)", "preferredTerm": "Single-slice Spiral Computed Tomography", "submissionValue": "SINGLE-SLICE SPIRAL CT"}, {"conceptId": "C75583", "definition": "Examination of the anterior segment of the eye using a medical instrument called a slit lamp.", "preferredTerm": "Slit-lamp Examination", "submissionValue": "SLIT LAMP"}, {"conceptId": "C117880", "definition": "A diagrammatic method to test visual acuity that uses the Sloan optotypes and a 1.25% contrast level.", "preferredTerm": "Sloan Letter Eye Chart 1.25 Percent", "submissionValue": "SLOAN LETTER EYE CHART 1.25%"}, {"conceptId": "C117881", "definition": "A diagrammatic method to test visual acuity that uses the Sloan optotypes and a 2.5% contrast level.", "preferredTerm": "Sloan Letter Eye Chart 2.5 Percent", "submissionValue": "SLOAN LETTER EYE CHART 2.5%"}, {"conceptId": "C65126", "definition": "The action of spreading a thin layer of material across a surface.", "preferredTerm": "Smear", "submissionValue": "SMEAR"}, {"conceptId": "C116151", "definition": "A genomic microarray-based method able to detect single nucleotide polymorphisms.", "preferredTerm": "Single Nucleotide Polymorphism Array", "submissionValue": "SNP ARRAY", "synonyms": ["Genotype Chip", "SNP Genotyping", "SNP Probe", "Single Nucleotide Polymorphism Array"]}, {"conceptId": "C20645", "definition": "A method of examining body organs by scanning them with X rays and using a computer to construct a series of cross-sectional scans along a single axis.", "preferredTerm": "Spiral CT", "submissionValue": "SPIRAL CT", "synonyms": ["Spiral Computed Tomography"]}, {"conceptId": "C50322", "definition": "A piece of chemically treated medium designed to react in the presence of specific amounts of a trigger substance.", "preferredTerm": "Test Strip Device Component", "submissionValue": "TEST STRIP"}, {"conceptId": "C85819", "definition": "A blood smear technique used to make a thick blood smear on a microscope slide which is generally used to look for blood parasites such as those causing malaria.", "preferredTerm": "Thick Smear Technique", "submissionValue": "THICK SMEAR"}, {"conceptId": "C85820", "definition": "A blood smear technique used to make a thin blood smear on a microscope slide which is generally used to look for blood parasites such as those causing malaria.", "preferredTerm": "Thin Smear Technique", "submissionValue": "THIN SMEAR"}, {"conceptId": "C92302", "definition": "A microscopy staining method that utilizes toluidine blue, a solution composed of tolonium chloride, to determine the presence of mast cells, lignin, proteoglycans and glycosaminoglycans.", "preferredTerm": "Toluidine Blue Staining Method", "submissionValue": "TOLUIDINE BLUE STAIN"}, {"conceptId": "C15350", "definition": "A therapeutic procedure that involves the irradiation of the whole body with ionizing or non-ionizing radiation. (NCI)", "preferredTerm": "Total-Body Irradiation", "submissionValue": "TOTAL BODY IRRADIATION"}, {"conceptId": "C96640", "definition": "A diagnostic radiologic test that involves the examination of the entire body in a single procedure.", "preferredTerm": "Total Body Radiography", "submissionValue": "TOTAL BODY RADIOGRAPHY"}, {"conceptId": "C18216", "definition": "An electron microscopy imaging technique that is utilized to examine structural components of a sample by passing electrons through the specimen.", "preferredTerm": "Transmission Electron Microscopy", "submissionValue": "TRANSMISSION ELECTRON MICROSCOPY"}, {"conceptId": "C23012", "definition": "A microscopy staining method that utilizes two or more colored, acidic dyes of contrasting colors. Masson trichrome is a mixture of three dyes including aniline blue, Beibrich scarlet and Weigert's iron hematoxylin. Other related, modified trichrome staining methods include Lillie's trichrome, Gomori's trichrome and Mallory's trichrome.", "preferredTerm": "Trichrome Staining Method", "submissionValue": "TRICHROME STAIN"}, {"conceptId": "C111328", "definition": "A method to quantify the opaqueness of a liquid using a turbidimeter, by measuring the decrease in light intensity due to the scattering effect of suspended particles in the liquid sample.", "preferredTerm": "Turbidimetry", "submissionValue": "TURBIDIMETRY"}, {"conceptId": "C116153", "definition": "A genomic microarray-based method using cDNA from two samples, labeled with two separate fluorophores/dyes at different emission wavelengths, and hybridized to a single microarray. The relative fluorescence intensity of each dye is being measured.", "preferredTerm": "Two Color Microarray", "submissionValue": "TWO-COLOR MICROARRAY", "synonyms": ["Dual-channel Microarray", "Two-channel Expression Array", "Two-channel Microarray", "Two-color Microarray-based Gene Expression"]}, {"conceptId": "C17230", "definition": "A technique in which high-frequency sound waves are bounced off internal organs and the echo pattern is converted into a 2 dimensional picture of the structures beneath the transducer.", "preferredTerm": "Ultrasonography", "submissionValue": "ULTRASOUND"}, {"conceptId": "C92303", "definition": "A microscopy staining method that utilizes uranyl acetate, a water insoluble yellow crystalline solid, which is used as a negative stain in electron microscopy.", "preferredTerm": "Uranyl Acetate Staining Method", "submissionValue": "URANYL ACETATE STAIN"}, {"conceptId": "C85828", "definition": "A microscopy staining method that utilizes a modified trichrome stain to determine the presence of microspordial, sporulating species. The staining method utilizes chromotrope 2R, a red acidic dye, the counterstain fast green, and phosphotungstic acid.", "preferredTerm": "Weber Green Staining Method", "submissionValue": "WEBER GREEN STAIN"}, {"conceptId": "C16357", "definition": "A method for the detection or identification of proteins or peptides that have been separated by gel electrophoresis and transferred onto nitrocellulose or other type of paper or nylon membrane. The proteins are then detected by reaction with enzymatically labeled or radiolabeled antibody probes.", "preferredTerm": "Western Blotting", "submissionValue": "WESTERN BLOT"}, {"conceptId": "C85829", "definition": "A microscopy staining method that utilizes the Romanowsky stains, eosin and methylene blue, solubilized in methanol. In this staining protocol, methanol is also utilized as a fixative agent prior to staining.", "preferredTerm": "Wright Staining Method", "submissionValue": "WRIGHT STAIN"}, {"conceptId": "C23041", "definition": "A microscopy staining method that is a combination of the Wright and Giemsa staining protocols and utilizes the Romanowsky stains, which are mixtures of eosin and thiazine dyes such as methylene blue. It produces darker blue and magenta shades than the giemsa stain alone, which may provide better contrast in microscopy.", "preferredTerm": "Wright-Giemsa Staining Method", "submissionValue": "WRIGHT-GIEMSA STAIN"}, {"conceptId": "C38101", "definition": "A radiographic procedure using the emission of x-rays to form an image of the structure penetrated by the radiation.", "preferredTerm": "Radiography", "submissionValue": "X-RAY", "synonyms": ["Radiography"]}, {"conceptId": "C85830", "definition": "A spectrometric method that determines the type and concentration of elements or chemicals in a sample, based upon the principle that each element emits fluorescent light of a particular wavelength when exposed to an X-ray.", "preferredTerm": "X-Ray Fluorescence Spectrometry", "submissionValue": "X-RAY FLUORESCENCE SPECTROMETRY"}, {"conceptId": "C85831", "definition": "A microscopy acid fast staining method that utilizes Ziehl-Neelsen carbol fuchsin, acid alcohol and methylene blue, to determine the presence of acid fast microorganisms. This acid fast staining technique requires heating during the primary staining step involving the carbol fuchsin.", "preferredTerm": "Ziehl Neelsen Acid Fast Staining Method", "submissionValue": "ZIEHL NEELSEN ACID FAST STAIN"}]}