{"_links": {"parentPackage": {"href": "/mdr/ct/packages/sdtmct-2014-09-26", "title": "SDTM Controlled Terminology Package 19 Effective 2014-09-26", "type": "Terminology"}, "rootItem": {"href": "/mdr/root/ct/sdtmct/codelists/C96783", "title": "Version-agnostic anchor resource for codelist C96783", "type": "Root Value Domain"}, "self": {"href": "/mdr/ct/packages/sdtmct-2014-09-26/codelists/C96783", "title": "CDISC SDTM Tumor Identification Test Name Terminology", "type": "Code List"}}, "conceptId": "C96783", "definition": "Terminology relevant to the test names that describe tumor assessments for identification purposes.", "extensible": "true", "name": "Tumor Identification Test Name", "preferredTerm": "CDISC SDTM Tumor Identification Test Name Terminology", "submissionValue": "TUTEST", "synonyms": ["Tumor Identification Test Name"], "terms": [{"conceptId": "C94523", "definition": "An indication that a tumor has been located and characterized.", "preferredTerm": "Tumor Identification", "submissionValue": "Tumor Identification", "synonyms": ["Tumor Identification"]}, {"conceptId": "C94525", "definition": "An indication that multiple tumors have coalesced into one tumor.", "preferredTerm": "Matted Tumor Mass Present", "submissionValue": "Tumor Merged", "synonyms": ["Tumor Merged"]}, {"conceptId": "C96642", "definition": "An indication that a single tumor has divided into two or more tumors.", "preferredTerm": "Tumor Split", "submissionValue": "Tumor Split", "synonyms": ["Tumor Split"]}]}