{"_links": {"parentPackage": {"href": "/mdr/ct/packages/sdtmct-2014-09-26", "title": "SDTM Controlled Terminology Package 19 Effective 2014-09-26", "type": "Terminology"}, "rootItem": {"href": "/mdr/root/ct/sdtmct/codelists/C96784", "title": "Version-agnostic anchor resource for codelist C96784", "type": "Root Value Domain"}, "self": {"href": "/mdr/ct/packages/sdtmct-2014-09-26/codelists/C96784", "title": "CDISC SDTM Tumor Identification Test Code Terminology", "type": "Code List"}}, "conceptId": "C96784", "definition": "Terminology relevant to the test codes that describe tumor assessments for identification purposes.", "extensible": "true", "name": "Tumor Identification Test Code", "preferredTerm": "CDISC SDTM Tumor Identification Test Code Terminology", "submissionValue": "TUTESTCD", "synonyms": ["Tumor Identification Test Code"], "terms": [{"conceptId": "C94525", "definition": "An indication that multiple tumors have coalesced into one tumor.", "preferredTerm": "Matted Tumor Mass Present", "submissionValue": "TUMERGE", "synonyms": ["Tumor Merged"]}, {"conceptId": "C94523", "definition": "An indication that a tumor has been located and characterized.", "preferredTerm": "Tumor Identification", "submissionValue": "TUMIDENT", "synonyms": ["Tumor Identification"]}, {"conceptId": "C96642", "definition": "An indication that a single tumor has divided into two or more tumors.", "preferredTerm": "Tumor Split", "submissionValue": "TUSPLIT", "synonyms": ["Tumor Split"]}]}