{"_links": {"parentPackage": {"href": "/mdr/ct/packages/sdtmct-2014-09-26", "title": "SDTM Controlled Terminology Package 19 Effective 2014-09-26", "type": "Terminology"}, "rootItem": {"href": "/mdr/root/ct/sdtmct/codelists/C96785", "title": "Version-agnostic anchor resource for codelist C96785", "type": "Root Value Domain"}, "self": {"href": "/mdr/ct/packages/sdtmct-2014-09-26/codelists/C96785", "title": "CDISC SDTM Tumor Response Result Terminology", "type": "Code List"}}, "conceptId": "C96785", "definition": "The result of an assessment of tumor response to treatment or therapy.", "extensible": "true", "name": "Tumor Response Result", "preferredTerm": "CDISC SDTM Tumor Response Result Terminology", "submissionValue": "RSSTRESC", "synonyms": ["Tumor Response Result"], "terms": [{"conceptId": "C4870", "definition": "The disappearance of all signs of cancer in response to treatment. (NCI)", "preferredTerm": "Complete Remission", "submissionValue": "CR", "synonyms": ["Complete Remission", "Complete Response"]}, {"conceptId": "C103385", "definition": "The disappearance of all signs of cancer in response to treatment accompanied by incomplete bone marrow recovery, as evidenced by persistent anemia, thrombocytopenia or neutropenia.", "preferredTerm": "Complete Response with Incomplete Bone Marrow Recovery", "submissionValue": "CRi", "synonyms": ["Complete Remission with Incomplete Blood Count Recovery", "Complete Response with Incomplete Bone Marrow Recovery"]}, {"conceptId": "C86071", "definition": "Open to question.", "preferredTerm": "Equivocal", "submissionValue": "EQUIVOCAL", "synonyms": ["EQUIVOCAL"]}, {"conceptId": "C62222", "definition": "Unable to be evaluated. (NCI)", "preferredTerm": "Unevaluable", "submissionValue": "NE", "synonyms": ["Not Evaluable"]}, {"conceptId": "C103424", "definition": "Not all target tumors were assessed. Or not all non-target tumors were assessed.", "preferredTerm": "Not All Tumors Evaluated", "submissionValue": "NOT ALL EVALUATED", "synonyms": ["Not All Evaluated"]}, {"conceptId": "C96700", "definition": "Persistence of one or more non-target lesion(s) and/or maintenance of tumor marker levels above the normal limits. (RECIST)", "preferredTerm": "Non Complete Response/Non Progressive Disease", "submissionValue": "Non-CR/Non-PD", "synonyms": ["Non Complete Response/Non Progressive Disease"]}, {"conceptId": "C35571", "definition": "A disease process that is increasing in scope or severity. (NCI)", "preferredTerm": "Progressive Disease", "submissionValue": "PD", "synonyms": ["Progressive Disease"]}, {"conceptId": "C18058", "definition": "A finding indicating that there is a decrease in the size and the extent of tissue involvement by a malignant tumor in a patient. (NCI)", "preferredTerm": "Partial Remission", "submissionValue": "PR", "synonyms": ["Partial Remission", "Partial Response"]}, {"conceptId": "C18213", "definition": "Cancer that is neither decreasing nor increasing in extent or severity. (NCI)", "preferredTerm": "Stable Disease", "submissionValue": "SD", "synonyms": ["Stable Disease"]}, {"conceptId": "C96644", "definition": "An overall level of substantial worsening in non-target disease that is of a magnitude that, even in the presence of SD or PR in target disease, the treating physician would feel it important to change therapy. (RECIST)", "preferredTerm": "Unequivocal Progression", "submissionValue": "UPD", "synonyms": ["Unequivocal Progression"]}, {"conceptId": "C103422", "definition": "Remission with remaining lymphoid nodules reflecting residual disease.", "preferredTerm": "Nodular Partial Response", "submissionValue": "nPR", "synonyms": ["Nodular Partial Response"]}]}