{"_links": {"parentPackage": {"href": "/mdr/ct/packages/sdtmct-2014-09-26", "title": "SDTM Controlled Terminology Package 19 Effective 2014-09-26", "type": "Terminology"}, "rootItem": {"href": "/mdr/root/ct/sdtmct/codelists/C96781", "title": "Version-agnostic anchor resource for codelist C96781", "type": "Root Value Domain"}, "self": {"href": "/mdr/ct/packages/sdtmct-2014-09-26/codelists/C96781", "title": "CDISC SDTM Tumor Response Assessment Test Name Terminology", "type": "Code List"}}, "conceptId": "C96781", "definition": "Terminology relevant to the test names that describe an assessment of tumor response to treatment or therapy.", "extensible": "true", "name": "Tumor Response Assessment Test Name", "preferredTerm": "CDISC SDTM Tumor Response Assessment Test Name Terminology", "submissionValue": "RSTEST", "synonyms": ["Tumor Response Assessment Test Name"], "terms": [{"conceptId": "C94536", "definition": "An assessment of the most clinically favorable overall response of the disease to the therapy.", "preferredTerm": "Best Overall Response", "submissionValue": "Best Overall Response", "synonyms": ["Best Overall Response", "Best Response"]}, {"conceptId": "C103420", "definition": "An assessment of the equivocality of disease progression based on a newly identified lesion.", "preferredTerm": "New Lesion Progression", "submissionValue": "New Lesion Progression", "synonyms": ["New Lesion Progression"]}, {"conceptId": "C96608", "definition": "A non-radiological determination of disease progression based on symptoms or other findings.", "preferredTerm": "Non-Radiological Progression", "submissionValue": "Non-Radiological Progression", "synonyms": ["Non-Radiological Progression"]}, {"conceptId": "C94535", "definition": "An assessment of the response of a non-target tumor(s) to the therapy.", "preferredTerm": "Response in Non-Target Lesion", "submissionValue": "Non-target Response", "synonyms": ["Non-target Response"]}, {"conceptId": "C96613", "definition": "An assessment of the overall response of the disease to the therapy. (NCI)", "preferredTerm": "Overall Response", "submissionValue": "Overall Response", "synonyms": ["Overall Response"]}, {"conceptId": "C94534", "definition": "An assessment of the response of a target tumor(s) to the therapy.", "preferredTerm": "Response in Target Lesion", "submissionValue": "Target Response", "synonyms": ["Target Response"]}]}