{"_links": {"parentPackage": {"href": "/mdr/ct/packages/define-xmlct-2021-06-25", "title": "Define-XML Controlled Terminology Package 46 Effective 2021-06-25", "type": "Terminology"}, "rootItem": {"href": "/mdr/root/ct/define-xmlct/codelists/C176227", "title": "Version-agnostic anchor resource for codelist C176227", "type": "Root Value Domain"}, "self": {"href": "/mdr/ct/packages/define-xmlct-2021-06-25/codelists/C176227", "title": "CDISC Define-XML ADaM Occurrence Data Structure Subclass Terminology", "type": "Code List"}}, "conceptId": "C176227", "definition": "Terminology relevant to the subclasses of the ADaM occurrence data structure.", "extensible": "false", "name": "ADaM Occurrence Data Structure Subclass", "preferredTerm": "CDISC Define-XML ADaM Occurrence Data Structure Subclass Terminology", "submissionValue": "OCCSC", "synonyms": ["ADaM Occurrence Data Structure Subclass"], "terms": [{"conceptId": "C176265", "definition": "A dataset containing data that is used for adverse event analyses.", "preferredTerm": "Adverse Event Dataset", "submissionValue": "ADVERSE EVENT"}]}