{"_links": {"parentPackage": {"href": "/mdr/ct/packages/cdashct-2014-09-26", "title": "CDASH Controlled Terminology Package 19 Effective 2014-09-26", "type": "Terminology"}, "rootItem": {"href": "/mdr/root/ct/cdashct/codelists/C78423", "title": "Version-agnostic anchor resource for codelist C78423", "type": "Root Value Domain"}, "self": {"href": "/mdr/ct/packages/cdashct-2014-09-26/codelists/C78423", "title": "CDISC CDASH Units for Exposure Terminology", "type": "Code List"}}, "conceptId": "C78423", "definition": "A terminology subset of the CDISC SDTM Unit codelist created for CDASH Units for Exposure codelist. (NCI)", "extensible": "true", "name": "Units for Exposure", "preferredTerm": "CDISC CDASH Units for Exposure Terminology", "submissionValue": "EXDOSU", "synonyms": ["Units for Exposure"], "terms": [{"conceptId": "C48480", "definition": "A dosing measurement based on the capsule unit.(NCI)", "preferredTerm": "Capsule Dosing Unit", "submissionValue": "CAPSULE", "synonyms": ["Capsule Dosing Unit", "cap"]}, {"conceptId": "C65060", "definition": "A means of delivering a defined dose of a therapeutic aerolized solution into either the upper or lower respiratory tract. Metered-dose inhalers or spray pumps are devices that provide a puff dose for delivery into either the oral or the nasal cavity.(NCI)", "preferredTerm": "Puff Dosing Unit", "submissionValue": "PUFF", "synonyms": ["Puff"]}, {"conceptId": "C48542", "definition": "A dosing measurement based on the tablet unit.(NCI)", "preferredTerm": "Tablet Dosing Unit", "submissionValue": "TABLET", "synonyms": ["Tablet Dosing Unit", "tab"]}, {"conceptId": "C48155", "definition": "A metric unit of mass equal to one one thousandth of a kilogram. (NCI)", "preferredTerm": "Gram", "submissionValue": "g", "synonyms": ["Gram"]}, {"conceptId": "C28254", "definition": "The unit of volume equal to one thousandth of a liter, one cubic centimeter, 10E-6 cubic meter, or approximately to 0.061 023 7 cubic inch.(NCI)", "preferredTerm": "Milliliter", "submissionValue": "mL", "synonyms": ["Milliliter", "cm3"]}, {"conceptId": "C28253", "definition": "The unit of mass equal to one thousandth of a gram or 1000 micrograms. One milligram equals approximately 0.015432 grain or 35.274 x 10E-6 ounce.(NCI)", "preferredTerm": "Milligram", "submissionValue": "mg", "synonyms": ["Milligram"]}, {"conceptId": "C48152", "definition": "The unit of mass equal to one millionth of a gram or one thousandth of a milligram.(NCI)", "preferredTerm": "Microgram", "submissionValue": "ug", "synonyms": ["Microgram", "mcg"]}]}