{"_links": {"parentPackage": {"href": "/mdr/ct/packages/cdashct-2014-09-26", "title": "CDASH Controlled Terminology Package 19 Effective 2014-09-26", "type": "Terminology"}, "rootItem": {"href": "/mdr/root/ct/cdashct/codelists/C78745", "title": "Version-agnostic anchor resource for codelist C78745", "type": "Root Value Domain"}, "self": {"href": "/mdr/ct/packages/cdashct-2014-09-26/codelists/C78745", "title": "CDISC CDASH Exposure Dosing Frequency per Interval Terminology", "type": "Code List"}}, "conceptId": "C78745", "definition": "A terminology subset of the CDISC SDTM Frequency codelist created for CDASH Exposure Dosing Frequency per Interval codelist. (NCI)", "extensible": "true", "name": "Exposure Dosing Frequency per Interval", "preferredTerm": "CDISC CDASH Exposure Dosing Frequency per Interval Terminology", "submissionValue": "EXDOSFRQ", "synonyms": ["Exposure Dosing Frequency per Interval"], "terms": [{"conceptId": "C64496", "definition": "Two times per day, at unspecified times. (NCI)", "preferredTerm": "Twice Daily", "submissionValue": "BID", "synonyms": ["BD", "Twice per day"]}, {"conceptId": "C64499", "definition": "As needed. (NCI)", "preferredTerm": "As Necessary", "submissionValue": "PRN", "synonyms": ["As needed"]}, {"conceptId": "C25473", "definition": "Occurring or done each day. (NCI)", "preferredTerm": "Daily", "submissionValue": "QD", "synonyms": ["Daily", "Per Day"]}, {"conceptId": "C64530", "definition": "Four times per day. (NCI)", "preferredTerm": "Four Times Daily", "submissionValue": "QID", "synonyms": ["4 times per day"]}, {"conceptId": "C64498", "definition": "Every month. (NCI)", "preferredTerm": "Monthly", "submissionValue": "QM", "synonyms": ["Every Month", "Per Month"]}, {"conceptId": "C64525", "definition": "Every other day. (NCI)", "preferredTerm": "Every Other Day", "submissionValue": "QOD", "synonyms": ["Every other day"]}, {"conceptId": "C64527", "definition": "Three times per day. (NCI)", "preferredTerm": "Three Times Daily", "submissionValue": "TID", "synonyms": ["3 times per day"]}, {"conceptId": "C17998", "definition": "Not known, not observed, not recorded, or refused. (NCI)", "preferredTerm": "Unknown", "submissionValue": "UNKNOWN", "synonyms": ["U", "Unknown"]}]}