{"_links": {"parentPackage": {"href": "/mdr/ct/packages/sendct-2020-11-06", "title": "SEND Controlled Terminology Package 43 Effective 2020-11-06", "type": "Terminology"}, "priorVersion": {"href": "/mdr/ct/packages/sendct-2020-06-26/codelists/C158119", "title": "CDISC SEND Biological Challenge Agent Category Response Terminology", "type": "Code List"}, "rootItem": {"href": "/mdr/root/ct/sendct/codelists/C158119", "title": "Version-agnostic anchor resource for codelist C158119", "type": "Root Value Domain"}, "self": {"href": "/mdr/ct/packages/sendct-2020-11-06/codelists/C158119", "title": "CDISC SEND Biological Challenge Agent Category Response Terminology", "type": "Code List"}}, "conceptId": "C158119", "definition": "Terminology related to classifications that describe and group the biological challenge agent.", "extensible": "true", "name": "Biological Challenge Agent Category Response", "preferredTerm": "CDISC SEND Biological Challenge Agent Category Response Terminology", "submissionValue": "BACAT", "synonyms": ["Biological Challenge Agent Category Response"], "terms": [{"conceptId": "C14187", "definition": "Any organism assigned to the kingdom Bacteria.", "preferredTerm": "Bacteria", "submissionValue": "BACTERIA", "synonyms": ["Bacterium", "Eubacteria"]}, {"conceptId": "C14209", "definition": "Any organism assigned to the kingdom Fungi.", "preferredTerm": "Fungus", "submissionValue": "FUNGUS"}, {"conceptId": "C14283", "definition": "Any infectious agent assigned to the superkingdom Virus.", "preferredTerm": "Virus", "submissionValue": "VIRUS"}]}