{"_links": {"parentPackage": {"href": "/mdr/ct/packages/sendct-2020-11-06", "title": "SEND Controlled Terminology Package 43 Effective 2020-11-06", "type": "Terminology"}, "priorVersion": {"href": "/mdr/ct/packages/sendct-2020-06-26/codelists/C71151", "title": "CDISC SDTM ECG Test Method Terminology", "type": "Code List"}, "rootItem": {"href": "/mdr/root/ct/sendct/codelists/C71151", "title": "Version-agnostic anchor resource for codelist C71151", "type": "Root Value Domain"}, "self": {"href": "/mdr/ct/packages/sendct-2020-11-06/codelists/C71151", "title": "CDISC SDTM ECG Test Method Terminology", "type": "Code List"}}, "conceptId": "C71151", "definition": "Terminology codelist used with ECG Test Methods within CDISC.", "extensible": "true", "name": "ECG Test Method", "preferredTerm": "CDISC SDTM ECG Test Method Terminology", "submissionValue": "EGMETHOD", "synonyms": ["ECG Test Method"], "terms": [{"conceptId": "C90349", "definition": "An electrocardiogram lead placement on the subject using a ten electrode lead set to synthesize standard 12 lead electrocardiograph data to elicit an electrical view of the heart.", "preferredTerm": "10 Lead Standard", "submissionValue": "10 LEAD STANDARD", "synonyms": ["10 Lead Standard"]}, {"conceptId": "C71125", "definition": "An electrocardiogram (ECG) lead placement whereby 12 leadpoints are recorded but one standard lead position is missing therefore requiring a Mortara source consistency filter. (NCI)", "preferredTerm": "12 Lead Placement 1 Lead Missing", "submissionValue": "12 LEAD 1 LEAD MISSING", "synonyms": ["12 Lead 1 Lead Missing"]}, {"conceptId": "C71116", "definition": "An electrocardiogram (ECG) lead placement whereby the display of the 12 standard ECG leads is in an orderly sequence in a single horizontal display of: aVL, I, -aVR, II, aVF, III, V1 to V6. In the Cabrera display the limb lead aVR is inverted (-aVR) to obtain the same positive leftward orientation as the other 5 limbs. (NCI)", "preferredTerm": "12 Lead Placement Cabrera", "submissionValue": "12 LEAD CABRERA", "synonyms": ["12 Lead Cabrera"]}, {"conceptId": "C123444", "definition": "A continuous electrocardiographic (ECG) recording utilizing 12 leads. The positioning of the electrodes may vary from the standard 12 lead ECG placement. Examples include but are not limited to 12 lead Holter with modified Mason-Likar lead placements, 12 lead exercise ECGs, and 12 lead telemetry systems.", "preferredTerm": "12 Lead Continuous ECG", "submissionValue": "12 LEAD CONTINUOUS ECG"}, {"conceptId": "C71123", "definition": "An electrocardiogram (ECG) lead placement whereby 4 chest electrodes and 1 reference electrode are used to allow for continuous monitoring at the clinical level. This placement creates a 12 lead ECG that allows the acquisition of simultaneous events in the frontal, horizontal and sagittal heart planes with the linear transformation of vectors. This system provides a three-dimensional portrayal of the heart and uses mathematical and fixed coefficients for each lead. (NCI)", "preferredTerm": "Lead Placement EASI Dower Transformation", "submissionValue": "12 LEAD EASI DOWER TRANSFORMATION", "synonyms": ["12 Lead EASI Dower Transformation"]}, {"conceptId": "C123445", "definition": "A standard duration (typically 10 seconds) 12 lead electrocardiogram (ECG) extracted from a 12 lead continuous ECG.", "preferredTerm": "12 Lead ECG Extracted From 12 Lead Continuous ECG Recording", "submissionValue": "12 LEAD ECG EXTRACTED FROM 12 LEAD CONTINUOUS ECG RECORDING"}, {"conceptId": "C71103", "definition": "An electrocardiogram (ECG) lead placement whereby 12 leadpoints are recorded but the standard lead positions have been modified for ECG recording during exercise. Exercise stress testing requires moving the limb electrodes to more central positions on the thorax. The electrodes are placed in bony prominences close to the bases of the respective limbs in order to avoid skeletal muscle artifact, provide stability for recording electrodes and to record waveforms similar to the standard limb sites. (NCI)", "preferredTerm": "12 Lead Placement Mason Likar", "submissionValue": "12 LEAD MASON LIKAR", "synonyms": ["12 Lead Mason Likar"]}, {"conceptId": "C71110", "definition": "An electrocardiogram (ECG) lead placement whereby 12 leadpoints are recorded but the Mason Likar lead positions have been modified so that V1 to V6 on the chest are part of a single electrode pad. In addition, lead CM5 is substituted for lead aVR. (NCI)", "preferredTerm": "12 Lead Placement Mason Likar Modified", "submissionValue": "12 LEAD MODIFIED MASON LIKAR", "synonyms": ["12 Lead Modified Mason Likar"]}, {"conceptId": "C71114", "definition": "An electrocardiogram (ECG) lead placement whereby the limb leads are placed on the torso for easier and faster application in emergency situations. (NCI)", "preferredTerm": "12 Lead Placement Non-Standard", "submissionValue": "12 LEAD NON-STANDARD", "synonyms": ["12 Lead Non-Standard"]}, {"conceptId": "C116139", "definition": "An electrocardiogram (ECG) lead placement whereby the precordial leads are intentionally placed on the right side of the chest.", "preferredTerm": "12 Lead Placement Right-sided Precordial Leads", "submissionValue": "12 LEAD RIGHT-SIDED PRECORDIAL LEADS", "synonyms": ["12 Lead Right-sided Precordial Leads", "Right-sided Chest Leads"]}, {"conceptId": "C71112", "definition": "An electrocardiogram (ECG) lead placement whereby 12 leadpoints are recorded but the standard lead positions have been modified so that all leads on the chest are part of a single electrode pad. (NCI)", "preferredTerm": "12 Lead Placement Chest", "submissionValue": "12 LEAD SINGLE PAD", "synonyms": ["12 Lead Single Pad"]}, {"conceptId": "C71102", "definition": "An electrocardiogram (ECG) lead placement whereby 12 leads are recorded, with each lead representing an electrical view of the heart. The six leads recorded in the frontal plane are derived from the placement of 3 electrodes (RA or Right Arm, LA, or Left Arm, and LL or Left Leg). These bipolar frontal leads form the basis of Einthoven's triangle, and are represented by leads I, II, and III. Three other derived (or augmented) bipolar frontal vectors are also recorded on a standard 12-lead EKG, aVR, aVF, and aVL. 6 unipolar leads, corresponding to V1 - V6 measure the electrical activity in the horizontal plane. The placement for the V leads is as follows: V1: right 4th intercostal space,V2: left 4th intercostal space, V3: halfway between V2 and V4, V4: left 5th intercostal space, mid-clavicular line, V5: horizontal to V4, anterior axillary line, V6: horizontal to V5, mid-axillary line. (NCI)", "preferredTerm": "12 Lead Placement Standard", "submissionValue": "12 LEAD STANDARD", "synonyms": ["12 Lead Standard"]}, {"conceptId": "C71101", "definition": "An electrocardiogram (ECG) lead placement whereby 12 leadpoints are recorded but the position of the leads is unspecified. (NCI)", "preferredTerm": "12 Lead Placement Unspecified", "submissionValue": "12 LEAD UNSPECIFIED", "synonyms": ["12 Lead Unspecified"]}, {"conceptId": "C132355", "definition": "An electrocardiogram (ECG) lead configuration that is primarily used to record ECGs in non-human animals, and which uses six (6) electrodes to generate eight (8) ECG leads (ECG wave forms). The six electrode configuration includes the following: four (4) limb electrodes, which are placed analogous to an Einthoven configuration in humans, and two (2) chest electrodes. The eight (8) ECG leads recorded comprise three standard limb leads (leads I, II, and III), three augmented leads (Leads aVR, aVF, and aVL), and two chest leads, which are generated using two unipolar chest leads, typically CV5RL [rV2] and CV6LL [V2] for canines, or MV1 and MV2 for primates.", "preferredTerm": "6 Lead NEHB-SPORI", "submissionValue": "6 LEAD NEHB-SPORI"}, {"conceptId": "C90350", "definition": "An electrocardiogram lead placement on the subject using a six electrode lead set with three standard leads and three augmented derived leads to elicit an electrical view of the heart.", "preferredTerm": "6 Lead Standard", "submissionValue": "6 LEAD STANDARD", "synonyms": ["6 Lead Standard"]}, {"conceptId": "C158157", "definition": "An electrocardiogram lead placement for non-human species using a five electrode lead set to monitor and/or record 7 ECG leads, analogous to the standard and augmented human limb leads and one chest lead.", "preferredTerm": "7 Lead Placement Standard for Non-Human Subjects", "submissionValue": "7 LEAD STANDARD, NON-HUMAN"}, {"conceptId": "C132356", "definition": "An electrocardiogram (ECG) recorded using 6 electrodes to generate 8 ECG leads (ECG wave forms). The 6 electrode configuration includes 4 limb electrodes in an Einthoven configuration and two chest electrodes. The 8 ECG leads recorded consist of three standard limb leads (leads I, II, and III), three augmented leads (leads aVR, aVF, and aVL), and two chest leads (which are generated using two unipolar chest leads (typically CV5RL [rV2] and CV6LL [V2] for canines or MV1 and MV2 for non-human primates). This lead configuration is typically used to record ECGs in non-human animals.", "preferredTerm": "8 Lead Standard", "submissionValue": "8 LEAD STANDARD"}, {"conceptId": "C71121", "definition": "An electrocardiogram (ECG) lead placement whereby the X+ lead is placed at the right mid-axillary line ate the 4th intercostal space, X- at the left mid-axillary line at he 4th intercostal space, Y+ at the proximal left leg, Y- at the superior aspect of the manubrium, Z+ at the direct posterior to Z- and Z- at the 4th intercostal space at the left sternal margin. (NCI)", "preferredTerm": "Lead Placement Bipolar Uncorrected XYZ", "submissionValue": "BIPOLAR UNCORRECTED XYZ LEAD SYSTEM", "synonyms": ["Bipolar uncorrected XYZ lead system"]}, {"conceptId": "C123446", "definition": "A continuous electrocardiographic (ECG) recording utilizing 1 or more leads that records and stores data directly to the device. The subject need not be restricted to a medical facility, and may be able to participate in their customary activities of daily living.", "preferredTerm": "Continuous Ambulatory ECG", "submissionValue": "CONTINUOUS AMBULATORY ECG"}, {"conceptId": "C154718", "definition": "A continuous electrocardiographic (ECG) recording utilizing one or more implanted leads in a non-human species.", "preferredTerm": "Continuous ECG Recording for Non-human Species Using Implanted Leads", "submissionValue": "CONTINUOUS ECG RECORDING FOR NON-HUMAN SPECIES USING IMPLANTED LEADS"}, {"conceptId": "C154717", "definition": "A continuous electrocardiographic (ECG) recording utilizing one or more surface leads in a non-human species.", "preferredTerm": "Continuous Surface ECG Recording for Non-human Species", "submissionValue": "CONTINUOUS SURFACE ECG RECORDING FOR NON-HUMAN SPECIES"}, {"conceptId": "C71120", "definition": "An electrocardiogram (ECG) lead placement that is a type of uncorrected vectorcardiograph. This lead system is based on a rectangular body axis. It uses an extra number of electrodes to make it three-dimensional. (NCI)", "preferredTerm": "Lead Placement Cube", "submissionValue": "CUBE LEAD SYSTEM", "synonyms": ["Cube lead system"]}, {"conceptId": "C71118", "definition": "An electrocardiogram (ECG) lead placement for determining 3 orthogonal components X (right to left direction), Y (foot to head direction) and Z (back to front direction) of the heart. For this method a minimum of 4 electrodes are needed that represent the right arm, left arm, left leg and back. However, usually 7 electrodes are used to avoid dependence on the dipole location and facilitate interpretation. (NCI)", "preferredTerm": "Lead Placement Frank", "submissionValue": "FRANK LEAD SYSTEM", "synonyms": ["Frank lead system"]}, {"conceptId": "C38064", "definition": "An electrocardiographic method for collecting continuous ECG waveforms with a variable number of discrete leads with duration longer than the standard 10 second ECG. Holter recording may be performed in patients who are ambulatory, and may collect data for 24 hours or longer.", "preferredTerm": "Holter Monitoring", "submissionValue": "HOLTER CONTINUOUS ECG RECORDING"}, {"conceptId": "C71119", "definition": "An electrocardiogram (ECG) lead placement for determining 3 orthogonal components X (back to front), Y (right to left) and Z (foot to head) of the heart. This system places the electrodes closer to the heart to achieve better orthogonality and a homogeneous lead field. (NCI)", "preferredTerm": "Lead Placement McFee-Parungao", "submissionValue": "MCFEE-PARUNGAO LEAD SYSTEM", "synonyms": ["McFee-Parungao lead system"]}, {"conceptId": "C71122", "definition": "An electrocardiogram (ECG) lead placement that allows monitoring and recording of cardiac electrical activity. A V1-type lead is used whose positive electrode is localized in the 4th intercostal space, 2.5cm from the sternum. Its negative electrode is placed below the left clavicle. An addition of lead V5 and aVF can be made to facilitate interpretation. (NCI)", "preferredTerm": "Lead Placement Pseudo Orthogonal XYZ", "submissionValue": "PSEUDO-ORTHOGONAL XYZ LEAD SYSTEM", "synonyms": ["Pseudo-orthogonal XYZ lead system"]}, {"conceptId": "C71128", "definition": "An electrocardiogram (ECG) lead placement whereby 12 leadpoints are recorded but the standard lead positions have been modified so that the negative reference is at CM5 and the active electrode is at the left leg position. (NCI)", "preferredTerm": "12 Lead Placement Standard And CC5-CM5-ML", "submissionValue": "STANDARD 12-LEAD AND CC5-CM5-ML", "synonyms": ["Standard 12-lead and CC5-CM5-ML"]}, {"conceptId": "C71126", "definition": "An electrocardiogram (ECG) lead placement whereby 12 leadpoints are recorded but the standard lead positions have been modified so that the bipolar lead groups place the negative of the reference electrode over the manubrium (CM5), the right scapula (CB5), V5R (CC5) or on the forehead (CH5) and the active electrode at V5. (NCI)", "preferredTerm": "12 Lead Placement Standard And CC5-CM5-CH5", "submissionValue": "STANDARD 12-LEAD AND CM5-CC5-CH5", "synonyms": ["Standard 12-lead and CM5-CC5-CH5"]}, {"conceptId": "C71131", "definition": "An electrocardiogram (ECG) lead placement whereby the standard lead placement is modified by having leads V7, V8 and V9. (NCI)", "preferredTerm": "12 Lead Placement Standard Extended Left", "submissionValue": "STANDARD 12-LEAD EXTENDED LEFT", "synonyms": ["Standard 12-lead extended to the left by V7, V8, V9"]}, {"conceptId": "C71130", "definition": "An electrocardiogram (ECG) lead placement whereby the rightward oriented V leads progress from V1R, placed instead of the standard V2, to V6R. The V3 lead in the standard placement is replaced by V4R. (NCI)", "preferredTerm": "12 Lead Placement Standard Extended Right", "submissionValue": "STANDARD 12-LEAD EXTENDED RIGHT", "synonyms": ["Standard 12-lead extended to the right by V5R, V4R, V3R"]}, {"conceptId": "C71115", "definition": "Limb leads on the back (shoulder and on the hips). (NCI)", "preferredTerm": "Lead Placement Bicycle", "submissionValue": "STANDARD LEADS FOR BICYCLE EXERCISE"}, {"conceptId": "C71117", "definition": "An electrocardiographic lead placement schema in which the V leads are placed one intercostal space cephalad to the position they would have in the standard lead placement schema. (NCI)", "preferredTerm": "Lead Placement Standard Intercostal Space Higher", "submissionValue": "STANDARD LEADS ONE INTERCOSTAL SPACE HIGHER", "synonyms": ["Standard leads one intercostal space higher"]}, {"conceptId": "C71092", "definition": "A recording of the electrical activity of the heart displayed in the form of a vector loop, corrected for anatomic inconsistencies. (NCI)", "preferredTerm": "Vectorcardiograph Corrected", "submissionValue": "VECTORCARDIOGRAPH CORRECTED", "synonyms": ["Vectorcardiograph Corrected"]}, {"conceptId": "C71093", "definition": "A recording of the electrical activity of the heart displayed in the form of a vector loop, uncorrected for anatomic inconsistencies. (NCI)", "preferredTerm": "Vectorcardiograph Uncorrected", "submissionValue": "VECTORCARDIOGRAPH UNCORRECTED", "synonyms": ["Vectorcardiograph Uncorrected"]}]}