{"_links": {"parentPackage": {"href": "/mdr/ct/packages/sendct-2020-11-06", "title": "SEND Controlled Terminology Package 43 Effective 2020-11-06", "type": "Terminology"}, "priorVersion": {"href": "/mdr/ct/packages/sendct-2020-06-26/codelists/C89960", "title": "CDISC SEND Body Weight Gain Test Code Terminology", "type": "Code List"}, "rootItem": {"href": "/mdr/root/ct/sendct/codelists/C89960", "title": "Version-agnostic anchor resource for codelist C89960", "type": "Root Value Domain"}, "self": {"href": "/mdr/ct/packages/sendct-2020-11-06/codelists/C89960", "title": "CDISC SEND Body Weight Gain Test Code Terminology", "type": "Code List"}}, "conceptId": "C89960", "definition": "Terminology for the test codes concerned with the increase in overall body mass.", "extensible": "true", "name": "Body Weight Gain Test Code", "preferredTerm": "CDISC SEND Body Weight Gain Test Code Terminology", "submissionValue": "BGTESTCD", "synonyms": ["Body Weight Gain Test Code"], "terms": [{"conceptId": "C62754", "definition": "A change in overall body weight, relative to the beginning of the collection period.", "preferredTerm": "Weight Gain", "submissionValue": "BWGAIN", "synonyms": ["Body Weight Gain"]}, {"conceptId": "C90363", "definition": "The mean value of the amount of weight change over a period of time, relative to the beginning of the collection period.", "preferredTerm": "Average Body Weight Gain", "submissionValue": "BWGAINA", "synonyms": ["Average Body Weight Gain"]}, {"conceptId": "C124476", "definition": "The amount of maternal body weight gained over a period of time where the weight at the end of the interval is adjusted for the gravid uterus weight. This is derived by subtracting the maternal body weight adjusted for the gravid uterus from the total maternal body weight.", "preferredTerm": "Gravid Uterus Adjusted Maternal Body Weight Gain", "submissionValue": "BWGAINGU", "synonyms": ["Gravid Uterus Adjusted Body Weight Gain"]}, {"conceptId": "C90434", "definition": "The amount of weight change over a period of time in relation to the total weight, relative to the beginning of the collection period.", "preferredTerm": "Percentage Body Weight Gain", "submissionValue": "BWGAINP", "synonyms": ["Percentage Body Weight Gain"]}]}