{"_links": {"parentPackage": {"href": "/mdr/ct/packages/sendct-2020-11-06", "title": "SEND Controlled Terminology Package 43 Effective 2020-11-06", "type": "Terminology"}, "priorVersion": {"href": "/mdr/ct/packages/sendct-2020-06-26/codelists/C95120", "title": "CDISC SDTM Physical Properties Test Name Terminology", "type": "Code List"}, "rootItem": {"href": "/mdr/root/ct/sendct/codelists/C95120", "title": "Version-agnostic anchor resource for codelist C95120", "type": "Root Value Domain"}, "self": {"href": "/mdr/ct/packages/sendct-2020-11-06/codelists/C95120", "title": "CDISC SDTM Physical Properties Test Name Terminology", "type": "Code List"}}, "conceptId": "C95120", "definition": "Terminology relevant to the test names that describe the physical characteristics of an entity.", "extensible": "true", "name": "Physical Properties Test Name", "preferredTerm": "CDISC SDTM Physical Properties Test Name Terminology", "submissionValue": "PHSPRP", "synonyms": ["Physical Properties Test Name"], "terms": [{"conceptId": "C37927", "definition": "The appearance of objects (or light sources) described in terms of a person's perception of their hue and lightness (or brightness) and saturation. (NCI)", "preferredTerm": "Color", "submissionValue": "Color", "synonyms": ["Color"]}, {"conceptId": "C95110", "definition": "A description about the firmness or make-up of an entity.", "preferredTerm": "Consistency", "submissionValue": "Consistency", "synonyms": ["Consistency"]}, {"conceptId": "C25333", "definition": "The extent downward or inward; the perpendicular measurement from the surface downward to determine deepness. (NCI)", "preferredTerm": "Depth", "submissionValue": "Depth", "synonyms": ["Depth"]}, {"conceptId": "C25365", "definition": "A written or verbal account, representation, statement, or explanation of something. (NCI)", "preferredTerm": "Description", "submissionValue": "Description", "synonyms": ["Description"]}, {"conceptId": "C25285", "definition": "The length of a straight line passing through the center of a circle or sphere and connecting two points on the circumference. (NCI)", "preferredTerm": "Diameter", "submissionValue": "Diameter", "synonyms": ["Diameter"]}, {"conceptId": "C95109", "definition": "A description of the quantity or quality of the hair or fur covering a biological entity. (NCI)", "preferredTerm": "Hair or Fur Cover", "submissionValue": "Hair Cover", "synonyms": ["Hair Cover"]}, {"conceptId": "C25334", "definition": "The linear extent in space from one end of something to the other end, or the extent of something from beginning to end. (NCI)", "preferredTerm": "Length", "submissionValue": "Length", "synonyms": ["Length"]}, {"conceptId": "C25677", "definition": "The spatial arrangement of something as distinct from its substance. (NCI)", "preferredTerm": "Shape", "submissionValue": "Shape", "synonyms": ["Shape"]}, {"conceptId": "C25757", "definition": "The formation or development of an ulcer. (NCI)", "preferredTerm": "Ulceration", "submissionValue": "Ulceration", "synonyms": ["Ulceration"]}, {"conceptId": "C25345", "definition": "The extent or measurement of something from side to side. (NCI)", "preferredTerm": "Width", "submissionValue": "Width", "synonyms": ["Width"]}]}